pos,corr_resp,trials.thisRepN,trials.thisTrialN,trials.thisN,trials.thisIndex,trials_2.thisRepN,trials_2.thisTrialN,trials_2.thisN,trials_2.thisIndex,thisRow.t,notes,trial.started,fixation.started,line1.started,line2.started,line3.started,line4.started,fixation.stopped,probe.started,key_resp.started,trial.stopped,key_resp.keys,key_resp.corr,key_resp.rt,key_resp.duration,participant,session,date,expName,psychopyVersion,frameRate,expStart,
-50,x,0,0,0,0,,,,,0.01745759998448193,,0.009833399904891849,0.01745759998448193,1.0112745999358594,1.0112745999358594,1.0112745999358594,1.0112745999358594,1.0278958000708371,2.011159999994561,2.011159999994561,3.4317010999657214,x,1,1.3279952998273075,None,574263,001,2024-10-14_20h30.54.198,PRIYANSHI.AU2220101_motor.sequence,2024.1.5,None,2024-10-14 20h31.03.501059 +0530,
150,v,0,1,1,1,,,,,3.4385333999525756,,3.434089799877256,3.4385333999525756,4.444354699924588,4.444354699924588,4.444354699924588,4.444354699924588,4.444354699924588,5.444251399952918,5.444251399952918,6.878572100074962,v,1,1.4206218998879194,None,574263,001,2024-10-14_20h30.54.198,PRIYANSHI.AU2220101_motor.sequence,2024.1.5,None,2024-10-14 20h31.03.501059 +0530,
50,corr_resp,0,2,2,2,,,,,6.894333699950948,,6.879664399893954,6.894333699950948,7.8943735000211746,7.8943735000211746,7.8943735000211746,7.8943735000211746,7.8943735000211746,8.89415939990431,8.89415939990431,9.478772500064224,c,0,0.5736899001058191,None,574263,001,2024-10-14_20h30.54.198,PRIYANSHI.AU2220101_motor.sequence,2024.1.5,None,2024-10-14 20h31.03.501059 +0530,
-150,z,0,3,3,3,,,,,9.494480199879035,,9.479961300035939,9.494480199879035,10.494348299922422,10.494348299922422,10.494348299922422,10.494348299922422,10.494348299922422,11.49435789999552,11.49435789999552,11.995335799874738,z,1,0.4947068998590112,None,574263,001,2024-10-14_20h30.54.198,PRIYANSHI.AU2220101_motor.sequence,2024.1.5,None,2024-10-14 20h31.03.501059 +0530,
-50,x,1,0,4,0,,,,,12.010904500028118,,11.996507700067014,12.010904500028118,13.01099759992212,13.01099759992212,13.01099759992212,13.01099759992212,13.01099759992212,14.010901799891144,14.010901799891144,14.662594299996272,x,1,0.648958999896422,None,574263,001,2024-10-14_20h30.54.198,PRIYANSHI.AU2220101_motor.sequence,2024.1.5,None,2024-10-14 20h31.03.501059 +0530,
150,v,1,1,5,1,,,,,14.677278500050306,,14.664313100045547,14.677278500050306,15.677618999965489,15.677618999965489,15.677618999965489,15.677618999965489,15.677618999965489,16.67724659992382,16.67724659992382,17.095169099979103,v,1,0.40780639997683465,None,574263,001,2024-10-14_20h30.54.198,PRIYANSHI.AU2220101_motor.sequence,2024.1.5,None,2024-10-14 20h31.03.501059 +0530,
50,corr_resp,1,2,6,2,,,,,17.1109368999023,,17.09634710010141,17.1109368999023,18.110822699964046,18.110822699964046,18.110822699964046,18.110822699964046,18.110822699964046,19.110710500041023,19.110710500041023,19.461777299875394,c,0,0.3483452999498695,None,574263,001,2024-10-14_20h30.54.198,PRIYANSHI.AU2220101_motor.sequence,2024.1.5,None,2024-10-14 20h31.03.501059 +0530,
-150,z,1,3,7,3,,,,,19.47736410005018,,19.462903999956325,19.47736410005018,20.477325899992138,20.477325899992138,20.477325899992138,20.477325899992138,20.477325899992138,21.477169699966908,21.477169699966908,22.0956298999954,z,1,0.607193399919197,None,574263,001,2024-10-14_20h30.54.198,PRIYANSHI.AU2220101_motor.sequence,2024.1.5,None,2024-10-14 20h31.03.501059 +0530,
-50,x,2,0,8,0,,,,,22.11057860008441,,22.096984599949792,22.11057860008441,23.110656100092456,23.110656100092456,23.110656100092456,23.110656100092456,23.110656100092456,24.110476099886,24.110476099886,24.59499210002832,x,1,0.46911170007660985,None,574263,001,2024-10-14_20h30.54.198,PRIYANSHI.AU2220101_motor.sequence,2024.1.5,None,2024-10-14 20h31.03.501059 +0530,
150,v,2,1,9,1,,,,,24.610730499960482,,24.596097300061956,24.610730499960482,25.610411199973896,25.610411199973896,25.610411199973896,25.610411199973896,25.610411199973896,26.610411599976942,26.610411599976942,27.045012000016868,v,1,0.423695599893108,None,574263,001,2024-10-14_20h30.54.198,PRIYANSHI.AU2220101_motor.sequence,2024.1.5,None,2024-10-14 20h31.03.501059 +0530,
50,corr_resp,2,2,10,2,,,,,27.06054689991288,,27.046155999880284,27.06054689991288,28.06048159999773,28.06048159999773,28.06048159999773,28.06048159999773,28.06048159999773,29.06030929996632,29.06030929996632,29.878233700059354,c,0,0.8115088997874409,None,574263,001,2024-10-14_20h30.54.198,PRIYANSHI.AU2220101_motor.sequence,2024.1.5,None,2024-10-14 20h31.03.501059 +0530,
-150,z,2,3,11,3,,,,,29.893856900045648,,29.879354699980468,29.893856900045648,30.893743199994788,30.893743199994788,30.893743199994788,30.893743199994788,30.893743199994788,31.893495300086215,31.893495300086215,32.677838099887595,z,1,0.7687491998076439,None,574263,001,2024-10-14_20h30.54.198,PRIYANSHI.AU2220101_motor.sequence,2024.1.5,None,2024-10-14 20h31.03.501059 +0530,
-50,x,3,0,12,0,,,,,32.69395589991473,,32.67897800006904,32.69395589991473,33.69377000001259,33.69377000001259,33.69377000001259,33.69377000001259,33.69377000001259,34.69358660001308,34.69358660001308,35.244518799940124,x,1,0.5411435000132769,None,574263,001,2024-10-14_20h30.54.198,PRIYANSHI.AU2220101_motor.sequence,2024.1.5,None,2024-10-14 20h31.03.501059 +0530,
150,v,3,1,13,1,,,,,35.260341899935156,,35.24562849989161,35.260341899935156,36.26040769997053,36.26040769997053,36.26040769997053,36.26040769997053,36.26040769997053,37.26033920003101,37.26033920003101,37.761323099955916,v,1,0.4925681999884546,None,574263,001,2024-10-14_20h30.54.198,PRIYANSHI.AU2220101_motor.sequence,2024.1.5,None,2024-10-14 20h31.03.501059 +0530,
50,corr_resp,3,2,14,2,,,,,37.7766646000091,,37.76248600007966,37.7766646000091,38.77671770006418,38.77671770006418,38.77671770006418,38.77671770006418,38.77671770006418,39.77661440009251,39.77661440009251,40.19444389990531,c,0,0.41281240014359355,None,574263,001,2024-10-14_20h30.54.198,PRIYANSHI.AU2220101_motor.sequence,2024.1.5,None,2024-10-14 20h31.03.501059 +0530,
-150,z,3,3,15,3,,,,,40.210200499976054,,40.19555759988725,40.210200499976054,41.210237100021914,41.210237100021914,41.210237100021914,41.210237100021914,41.210237100021914,42.21000099997036,42.21000099997036,43.12854569987394,z,1,0.9073833001311868,None,574263,001,2024-10-14_20h30.54.198,PRIYANSHI.AU2220101_motor.sequence,2024.1.5,None,2024-10-14 20h31.03.501059 +0530,
-50,x,4,0,16,0,,,,,43.14373099990189,,43.13000759994611,43.14373099990189,44.143552399938926,44.143552399938926,44.143552399938926,44.143552399938926,44.143552399938926,45.143287600018084,45.143287600018084,45.72760470001958,x,1,0.5772194999735802,None,574263,001,2024-10-14_20h30.54.198,PRIYANSHI.AU2220101_motor.sequence,2024.1.5,None,2024-10-14 20h31.03.501059 +0530,
150,v,4,1,17,1,,,,,45.743389199953526,,45.72869569994509,45.743389199953526,46.74367560003884,46.74367560003884,46.74367560003884,46.74367560003884,46.74367560003884,47.743353500030935,47.743353500030935,48.444765999913216,v,1,0.6888464000076056,None,574263,001,2024-10-14_20h30.54.198,PRIYANSHI.AU2220101_motor.sequence,2024.1.5,None,2024-10-14 20h31.03.501059 +0530,
50,corr_resp,4,2,18,2,,,,,48.45991829992272,,48.44615010009147,48.45991829992272,49.459948299918324,49.459948299918324,49.459948299918324,49.459948299918324,49.459948299918324,50.4602268000599,50.4602268000599,51.07738019991666,c,0,0.6145536999683827,None,574263,001,2024-10-14_20h30.54.198,PRIYANSHI.AU2220101_motor.sequence,2024.1.5,None,2024-10-14 20h31.03.501059 +0530,
-150,z,4,3,19,3,,,,,51.093038300052285,,51.07845989987254,51.093038300052285,52.09316570009105,52.09316570009105,52.09316570009105,52.09316570009105,52.09316570009105,53.09303279989399,53.09303279989399,53.92745120008476,z,1,0.818783099995926,None,574263,001,2024-10-14_20h30.54.198,PRIYANSHI.AU2220101_motor.sequence,2024.1.5,None,2024-10-14 20h31.03.501059 +0530,
-50,x,5,0,20,0,,,,,53.943051300011575,,53.92859690007754,53.943051300011575,54.94327399996109,54.94327399996109,54.94327399996109,54.94327399996109,54.94327399996109,55.94318210007623,55.94318210007623,56.34453590004705,x,1,0.3954276000149548,None,574263,001,2024-10-14_20h30.54.198,PRIYANSHI.AU2220101_motor.sequence,2024.1.5,None,2024-10-14 20h31.03.501059 +0530,
150,v,5,1,21,1,,,,,56.35993449995294,,56.345787700032815,56.35993449995294,57.359654099913314,57.359654099913314,57.359654099913314,57.359654099913314,57.359654099913314,58.35962020000443,58.35962020000443,58.84394060005434,v,1,0.4812449000310153,None,574263,001,2024-10-14_20h30.54.198,PRIYANSHI.AU2220101_motor.sequence,2024.1.5,None,2024-10-14 20h31.03.501059 +0530,
50,corr_resp,5,2,22,2,,,,,58.85970350005664,,58.84515820001252,58.85970350005664,59.85975899989717,59.85975899989717,59.85975899989717,59.85975899989717,59.85975899989717,60.859656899934635,60.859656899934635,61.21052429988049,c,0,0.3343108999542892,None,574263,001,2024-10-14_20h30.54.198,PRIYANSHI.AU2220101_motor.sequence,2024.1.5,None,2024-10-14 20h31.03.501059 +0530,
-150,z,5,3,23,3,,,,,61.226107799913734,,61.21165010007098,61.226107799913734,62.22759989998303,62.22759989998303,62.22759989998303,62.22759989998303,62.22759989998303,63.22596769989468,63.22596769989468,63.877154199872166,z,1,0.6417316000442952,None,574263,001,2024-10-14_20h30.54.198,PRIYANSHI.AU2220101_motor.sequence,2024.1.5,None,2024-10-14 20h31.03.501059 +0530,
-50,x,6,0,24,0,,,,,63.892810999881476,,63.87828000006266,63.892810999881476,64.89276190008968,64.89276190008968,64.89276190008968,64.89276190008968,64.89276190008968,65.89270540000871,65.89270540000871,66.24383400008082,x,1,0.3365584001876414,None,574263,001,2024-10-14_20h30.54.198,PRIYANSHI.AU2220101_motor.sequence,2024.1.5,None,2024-10-14 20h31.03.501059 +0530,
150,v,6,1,25,1,,,,,66.25937539990991,,66.24499589996412,66.25937539990991,67.25929330009967,67.25929330009967,67.25929330009967,67.25929330009967,67.25929330009967,68.25944079994224,68.25944079994224,68.72689930000342,v,1,0.461648799944669,None,574263,001,2024-10-14_20h30.54.198,PRIYANSHI.AU2220101_motor.sequence,2024.1.5,None,2024-10-14 20h31.03.501059 +0530,
50,corr_resp,6,2,26,2,,,,,68.74264999991283,,68.72797010000795,68.74264999991283,69.74272780003957,69.74272780003957,69.74272780003957,69.74272780003957,69.74272780003957,70.74253960000351,70.74253960000351,71.1436586000491,c,0,0.39754640008322895,None,574263,001,2024-10-14_20h30.54.198,PRIYANSHI.AU2220101_motor.sequence,2024.1.5,None,2024-10-14 20h31.03.501059 +0530,
-150,z,6,3,27,3,,,,,71.15942090004683,,71.14477690006606,71.15942090004683,72.1592999000568,72.1592999000568,72.1592999000568,72.1592999000568,72.1592999000568,73.1592806999106,73.1592806999106,73.8439513000194,z,1,0.6766755999997258,None,574263,001,2024-10-14_20h30.54.198,PRIYANSHI.AU2220101_motor.sequence,2024.1.5,None,2024-10-14 20h31.03.501059 +0530,
-50,x,7,0,28,0,,,,,73.85916769993491,,73.84505799994804,73.85916769993491,74.85922420001589,74.85922420001589,74.85922420001589,74.85922420001589,74.85922420001589,75.8592534000054,75.8592534000054,76.37681700009853,x,1,0.5099543000105768,None,574263,001,2024-10-14_20h30.54.198,PRIYANSHI.AU2220101_motor.sequence,2024.1.5,None,2024-10-14 20h31.03.501059 +0530,
150,v,7,1,29,1,,,,,76.3924656000454,,76.37798999994993,76.3924656000454,77.39243549993262,77.39243549993262,77.39243549993262,77.39243549993262,77.39243549993262,78.3923969999887,78.3923969999887,78.91037519997917,v,1,0.514192899921909,None,574263,001,2024-10-14_20h30.54.198,PRIYANSHI.AU2220101_motor.sequence,2024.1.5,None,2024-10-14 20h31.03.501059 +0530,
50,corr_resp,7,2,30,2,,,,,78.92549300007522,,78.91202410007827,78.92549300007522,79.92562379990704,79.92562379990704,79.92562379990704,79.92562379990704,79.92562379990704,80.92565919994377,80.92565919994377,81.31007190002128,c,0,0.37773139984346926,None,574263,001,2024-10-14_20h30.54.198,PRIYANSHI.AU2220101_motor.sequence,2024.1.5,None,2024-10-14 20h31.03.501059 +0530,
-150,z,7,3,31,3,,,,,81.32560550002381,,81.311206900049,81.32560550002381,82.32575009996071,82.32575009996071,82.32575009996071,82.32575009996071,82.32575009996071,83.32559249992482,83.32559249992482,83.99358969996683,z,1,0.6555167001206428,None,574263,001,2024-10-14_20h30.54.198,PRIYANSHI.AU2220101_motor.sequence,2024.1.5,None,2024-10-14 20h31.03.501059 +0530,
-50,x,8,0,32,0,,,,,84.00913259992376,,83.99498809990473,84.00913259992376,85.00886439997703,85.00886439997703,85.00886439997703,85.00886439997703,85.00886439997703,86.00892450008541,86.00892450008541,86.52648180001415,x,1,0.502183300210163,None,574263,001,2024-10-14_20h30.54.198,PRIYANSHI.AU2220101_motor.sequence,2024.1.5,None,2024-10-14 20h31.03.501059 +0530,
150,v,8,1,33,1,,,,,86.54216430010274,,86.52757939998992,86.54216430010274,87.54230930004269,87.54230930004269,87.54230930004269,87.54230930004269,87.54230930004269,88.54214369994588,88.54214369994588,89.59343519993126,v,1,1.0398939999286085,None,574263,001,2024-10-14_20h30.54.198,PRIYANSHI.AU2220101_motor.sequence,2024.1.5,None,2024-10-14 20h31.03.501059 +0530,
50,corr_resp,8,2,34,2,,,,,89.60865309997462,,89.59471730003133,89.60865309997462,90.60897330008447,90.60897330008447,90.60897330008447,90.60897330008447,90.60897330008447,91.60900679999031,91.60900679999031,92.52656519995071,c,0,0.9045482999645174,None,574263,001,2024-10-14_20h30.54.198,PRIYANSHI.AU2220101_motor.sequence,2024.1.5,None,2024-10-14 20h31.03.501059 +0530,
-150,z,8,3,35,3,,,,,92.54213649989106,,92.52781039988622,92.54213649989106,93.54216339997947,93.54216339997947,93.54216339997947,93.54216339997947,93.54216339997947,94.54214540007524,94.54214540007524,95.40976290008985,z,1,0.8580046000424773,None,574263,001,2024-10-14_20h30.54.198,PRIYANSHI.AU2220101_motor.sequence,2024.1.5,None,2024-10-14 20h31.03.501059 +0530,
-50,x,9,0,36,0,,,,,95.42525379988365,,95.41136349993758,95.42525379988365,96.42521449993365,96.42521449993365,96.42521449993365,96.42521449993365,96.42521449993365,97.4253334000241,97.4253334000241,97.99333469988778,x,1,0.5512820000294596,None,574263,001,2024-10-14_20h30.54.198,PRIYANSHI.AU2220101_motor.sequence,2024.1.5,None,2024-10-14 20h31.03.501059 +0530,
150,v,9,1,37,1,,,,,98.0088138000574,,97.99488919996656,98.0088138000574,99.0086403999012,99.0086403999012,99.0086403999012,99.0086403999012,99.0086403999012,100.00860709999688,100.00860709999688,100.52636700007133,v,1,0.5103857999201864,None,574263,001,2024-10-14_20h30.54.198,PRIYANSHI.AU2220101_motor.sequence,2024.1.5,None,2024-10-14 20h31.03.501059 +0530,
50,corr_resp,9,2,38,2,,,,,100.54179899999872,,100.52753690001555,100.54179899999872,101.54193080007099,101.54193080007099,101.54193080007099,101.54193080007099,101.54193080007099,102.54172299988568,102.54172299988568,102.8951244999189,c,0,0.34988110000267625,None,574263,001,2024-10-14_20h30.54.198,PRIYANSHI.AU2220101_motor.sequence,2024.1.5,None,2024-10-14 20h31.03.501059 +0530,
-150,z,9,3,39,3,,,,,102.90866549988277,,102.89639750006609,102.90866549988277,103.9084475999698,103.9084475999698,103.9084475999698,103.9084475999698,103.9084475999698,104.9084735000506,104.9084735000506,105.57621389999986,z,1,0.6650517999660224,None,574263,001,2024-10-14_20h30.54.198,PRIYANSHI.AU2220101_motor.sequence,2024.1.5,None,2024-10-14 20h31.03.501059 +0530,
-50,x,10,0,40,0,,,,,105.59155120002106,,105.57731399987824,105.59155120002106,106.59161540004425,106.59161540004425,106.59161540004425,106.59161540004425,106.59161540004425,107.59163710009307,107.59163710009307,108.14305870002136,x,1,0.5476681999862194,None,574263,001,2024-10-14_20h30.54.198,PRIYANSHI.AU2220101_motor.sequence,2024.1.5,None,2024-10-14 20h31.03.501059 +0530,
150,v,10,1,41,1,,,,,108.1585017000325,,108.14439309993759,108.1585017000325,109.15870620007627,109.15870620007627,109.15870620007627,109.15870620007627,109.15870620007627,110.15830769995227,110.15830769995227,110.52594000007957,v,1,0.3596368001308292,None,574263,001,2024-10-14_20h30.54.198,PRIYANSHI.AU2220101_motor.sequence,2024.1.5,None,2024-10-14 20h31.03.501059 +0530,
50,corr_resp,10,2,42,2,,,,,110.54170749988407,,110.52701630000956,110.54170749988407,111.54168700007722,111.54168700007722,111.54168700007722,111.54168700007722,111.54168700007722,112.54160259990022,112.54160259990022,112.90916100004688,c,0,0.3522906000725925,None,574263,001,2024-10-14_20h30.54.198,PRIYANSHI.AU2220101_motor.sequence,2024.1.5,None,2024-10-14 20h31.03.501059 +0530,
-150,z,10,3,43,3,,,,,112.92484220000915,,112.91033879993483,112.92484220000915,113.9249734999612,113.9249734999612,113.9249734999612,113.9249734999612,113.9249734999612,114.92483890010044,114.92483890010044,115.52573290001601,z,1,0.5958141000010073,None,574263,001,2024-10-14_20h30.54.198,PRIYANSHI.AU2220101_motor.sequence,2024.1.5,None,2024-10-14 20h31.03.501059 +0530,
-50,x,11,0,44,0,,,,,115.5413895000238,,115.5267995998729,115.5413895000238,116.54154219990596,116.54154219990596,116.54154219990596,116.54154219990596,116.54154219990596,117.54138810001314,117.54138810001314,117.95958000002429,x,1,0.40292799985036254,None,574263,001,2024-10-14_20h30.54.198,PRIYANSHI.AU2220101_motor.sequence,2024.1.5,None,2024-10-14 20h31.03.501059 +0530,
150,v,11,1,45,1,,,,,117.97486019995995,,117.96048430004157,117.97486019995995,118.97480219998397,118.97480219998397,118.97480219998397,118.97480219998397,118.97480219998397,119.97455010004342,119.97455010004342,120.392342899926,v,1,0.40136680006980896,None,574263,001,2024-10-14_20h30.54.198,PRIYANSHI.AU2220101_motor.sequence,2024.1.5,None,2024-10-14 20h31.03.501059 +0530,
50,corr_resp,11,2,46,2,,,,,120.40802289987914,,120.39344889996573,120.40802289987914,121.40801919996738,121.40801919996738,121.40801919996738,121.40801919996738,121.40801919996738,122.40841510007158,122.40841510007158,122.72564419987611,c,0,0.3108095000497997,None,574263,001,2024-10-14_20h30.54.198,PRIYANSHI.AU2220101_motor.sequence,2024.1.5,None,2024-10-14 20h31.03.501059 +0530,
-150,z,11,3,47,3,,,,,122.74120729998685,,122.7269295998849,122.74120729998685,123.7413296001032,123.7413296001032,123.7413296001032,123.7413296001032,123.7413296001032,124.7413007998839,124.7413007998839,125.09229910001159,z,1,0.34739809995517135,None,574263,001,2024-10-14_20h30.54.198,PRIYANSHI.AU2220101_motor.sequence,2024.1.5,None,2024-10-14 20h31.03.501059 +0530,
-50,x,12,0,48,0,,,,,125.10783930006437,,125.09344019996934,125.10783930006437,126.10803289990872,126.10803289990872,126.10803289990872,126.10803289990872,126.10803289990872,127.10778800002299,127.10778800002299,127.42554079997353,x,1,0.308964200085029,None,574263,001,2024-10-14_20h30.54.198,PRIYANSHI.AU2220101_motor.sequence,2024.1.5,None,2024-10-14 20h31.03.501059 +0530,
150,v,12,1,49,1,,,,,127.4411760000512,,127.42668340005912,127.4411760000512,128.44113599997945,128.44113599997945,128.44113599997945,128.44113599997945,128.44113599997945,129.44103750004433,129.44103750004433,129.77566689997911,v,1,0.32441819994710386,None,574263,001,2024-10-14_20h30.54.198,PRIYANSHI.AU2220101_motor.sequence,2024.1.5,None,2024-10-14 20h31.03.501059 +0530,
50,corr_resp,12,2,50,2,,,,,129.79117299988866,,129.77673480007797,129.79117299988866,130.7911974999588,130.7911974999588,130.7911974999588,130.7911974999588,130.7911974999588,131.79097640002146,131.79097640002146,132.10893870005384,c,0,0.30184439988806844,None,574263,001,2024-10-14_20h30.54.198,PRIYANSHI.AU2220101_motor.sequence,2024.1.5,None,2024-10-14 20h31.03.501059 +0530,
-150,z,12,3,51,3,,,,,132.1243604000192,,132.11014449992217,132.1243604000192,133.12436889996752,133.12436889996752,133.12436889996752,133.12436889996752,133.12436889996752,134.1243779999204,134.1243779999204,134.47550470009446,z,1,0.3345103000756353,None,574263,001,2024-10-14_20h30.54.198,PRIYANSHI.AU2220101_motor.sequence,2024.1.5,None,2024-10-14 20h31.03.501059 +0530,
-50,x,13,0,52,0,,,,,134.49093830003403,,134.47662530001253,134.49093830003403,135.49093359988183,135.49093359988183,135.49093359988183,135.49093359988183,135.49093359988183,136.4908098001033,136.4908098001033,136.9085562999826,x,1,0.4061603001318872,None,574263,001,2024-10-14_20h30.54.198,PRIYANSHI.AU2220101_motor.sequence,2024.1.5,None,2024-10-14 20h31.03.501059 +0530,
150,v,13,1,53,1,,,,,136.92411729996093,,136.90966219990514,136.92411729996093,137.92406049999408,137.92406049999408,137.92406049999408,137.92406049999408,137.92406049999408,138.92399080004543,138.92399080004543,139.25870530004613,v,1,0.3288934000302106,None,574263,001,2024-10-14_20h30.54.198,PRIYANSHI.AU2220101_motor.sequence,2024.1.5,None,2024-10-14 20h31.03.501059 +0530,
50,corr_resp,13,2,54,2,,,,,139.2740865999367,,139.25990699999966,139.2740865999367,140.27402119990438,140.27402119990438,140.27402119990438,140.27402119990438,140.27402119990438,141.2741970999632,141.2741970999632,141.65838590008207,c,0,0.37227339996024966,None,574263,001,2024-10-14_20h30.54.198,PRIYANSHI.AU2220101_motor.sequence,2024.1.5,None,2024-10-14 20h31.03.501059 +0530,
-150,z,13,3,55,3,,,,,141.67418249999173,,141.65945619996637,141.67418249999173,142.67396509996615,142.67396509996615,142.67396509996615,142.67396509996615,142.67396509996615,143.67391470004804,143.67391470004804,144.0084901000373,z,1,0.32099290005862713,None,574263,001,2024-10-14_20h30.54.198,PRIYANSHI.AU2220101_motor.sequence,2024.1.5,None,2024-10-14 20h31.03.501059 +0530,
-50,x,14,0,56,0,,,,,144.02416340005584,,144.01008519995958,144.02416340005584,145.02401169994846,145.02401169994846,145.02401169994846,145.02401169994846,145.02401169994846,146.02378769987263,146.02378769987263,146.35856839991175,x,1,0.3268652001861483,None,574263,001,2024-10-14_20h30.54.198,PRIYANSHI.AU2220101_motor.sequence,2024.1.5,None,2024-10-14 20h31.03.501059 +0530,
150,v,14,1,57,1,,,,,146.3739557999652,,146.35971900005825,146.3739557999652,147.37386980000883,147.37386980000883,147.37386980000883,147.37386980000883,147.37386980000883,148.3738219998777,148.3738219998777,148.7083791999612,v,1,0.3257850001100451,None,574263,001,2024-10-14_20h30.54.198,PRIYANSHI.AU2220101_motor.sequence,2024.1.5,None,2024-10-14 20h31.03.501059 +0530,
50,corr_resp,14,2,58,2,,,,,148.72396390000358,,148.7095123999752,148.72396390000358,149.7237736999523,149.7237736999523,149.7237736999523,149.7237736999523,149.7237736999523,150.7238169000484,150.7238169000484,151.37473669997416,c,0,0.6483541000634432,None,574263,001,2024-10-14_20h30.54.198,PRIYANSHI.AU2220101_motor.sequence,2024.1.5,None,2024-10-14 20h31.03.501059 +0530,
-150,z,14,3,59,3,,,,,151.39044909994118,,151.3758781000506,151.39044909994118,152.39065230009146,152.39065230009146,152.39065230009146,152.39065230009146,152.39065230009146,153.39034210005775,153.39034210005775,154.09145499998704,z,1,0.6893594998400658,None,574263,001,2024-10-14_20h30.54.198,PRIYANSHI.AU2220101_motor.sequence,2024.1.5,None,2024-10-14 20h31.03.501059 +0530,
-50,x,15,0,60,0,,,,,154.107187199872,,154.09267690009438,154.107187199872,155.10716899996623,155.10716899996623,155.10716899996623,155.10716899996623,155.10716899996623,156.10708389990032,156.10708389990032,156.50812910008244,x,1,0.39359660004265606,None,574263,001,2024-10-14_20h30.54.198,PRIYANSHI.AU2220101_motor.sequence,2024.1.5,None,2024-10-14 20h31.03.501059 +0530,
150,v,15,1,61,1,,,,,156.52350259991363,,156.50925710005686,156.52350259991363,157.52353819995187,157.52353819995187,157.52353819995187,157.52353819995187,157.52353819995187,158.52387570007704,158.52387570007704,158.8757933001034,v,1,0.3503772998228669,None,574263,001,2024-10-14_20h30.54.198,PRIYANSHI.AU2220101_motor.sequence,2024.1.5,None,2024-10-14 20h31.03.501059 +0530,
50,corr_resp,15,2,62,2,,,,,158.89034539996646,,158.87706259987317,158.89034539996646,159.89028779999353,159.89028779999353,159.89028779999353,159.89028779999353,159.89028779999353,160.89040190004744,160.89040190004744,161.4743989999406,c,0,0.5707705998793244,None,574263,001,2024-10-14_20h30.54.198,PRIYANSHI.AU2220101_motor.sequence,2024.1.5,None,2024-10-14 20h31.03.501059 +0530,
-150,z,15,3,63,3,,,,,161.49022100004368,,161.47556630009785,161.49022100004368,162.49024250009097,162.49024250009097,162.49024250009097,162.49024250009097,162.49024250009097,163.49031740007922,163.49031740007922,163.82455669995397,z,1,0.3302136999554932,None,574263,001,2024-10-14_20h30.54.198,PRIYANSHI.AU2220101_motor.sequence,2024.1.5,None,2024-10-14 20h31.03.501059 +0530,
-50,x,16,0,64,0,,,,,163.84024500008672,,163.82604419998825,163.84024500008672,164.84018560010009,164.84018560010009,164.84018560010009,164.84018560010009,164.84018560010009,165.84022419992834,165.84022419992834,166.2928055000957,x,1,0.44730230001732707,None,574263,001,2024-10-14_20h30.54.198,PRIYANSHI.AU2220101_motor.sequence,2024.1.5,None,2024-10-14 20h31.03.501059 +0530,
150,v,16,1,65,1,,,,,166.3072655000724,,166.29471909999847,166.3072655000724,167.30702599999495,167.30702599999495,167.30702599999495,167.30702599999495,167.30702599999495,168.30661490000784,168.30661490000784,168.70783400000073,v,1,0.386113699991256,None,574263,001,2024-10-14_20h30.54.198,PRIYANSHI.AU2220101_motor.sequence,2024.1.5,None,2024-10-14 20h31.03.501059 +0530,
50,corr_resp,16,2,66,2,,,,,168.72344759991392,,168.70896219997667,168.72344759991392,169.72335590003058,169.72335590003058,169.72335590003058,169.72335590003058,169.72335590003058,170.72315279999748,170.72315279999748,171.09101390000433,c,0,0.3561434999573976,None,574263,001,2024-10-14_20h30.54.198,PRIYANSHI.AU2220101_motor.sequence,2024.1.5,None,2024-10-14 20h31.03.501059 +0530,
-150,z,16,3,67,3,,,,,171.1067083000671,,171.0921102000866,171.1067083000671,172.10681469994597,172.10681469994597,172.10681469994597,172.10681469994597,172.10681469994597,173.10670679993927,173.10670679993927,174.02454859996215,z,1,0.9014136001933366,None,574263,001,2024-10-14_20h30.54.198,PRIYANSHI.AU2220101_motor.sequence,2024.1.5,None,2024-10-14 20h31.03.501059 +0530,
-50,x,17,0,68,0,,,,,174.04009320004843,,174.02594779990613,174.04009320004843,175.0399166001007,175.0399166001007,175.0399166001007,175.0399166001007,175.0399166001007,176.03979080007412,176.03979080007412,176.39121969998814,x,1,0.34630080009810627,None,574263,001,2024-10-14_20h30.54.198,PRIYANSHI.AU2220101_motor.sequence,2024.1.5,None,2024-10-14 20h31.03.501059 +0530,
150,v,17,1,69,1,,,,,176.40652780001983,,176.39241830003448,176.40652780001983,177.40649030008353,177.40649030008353,177.40649030008353,177.40649030008353,177.40649030008353,178.40665029990487,178.40665029990487,178.72413480002433,v,1,0.30569070018827915,None,574263,001,2024-10-14_20h30.54.198,PRIYANSHI.AU2220101_motor.sequence,2024.1.5,None,2024-10-14 20h31.03.501059 +0530,
50,corr_resp,17,2,70,2,,,,,178.73978619999252,,178.72519079991616,178.73978619999252,179.73973340005614,179.73973340005614,179.73973340005614,179.73973340005614,179.73973340005614,180.73964460007846,180.73964460007846,181.04136510007083,c,0,0.30004339991137385,None,574263,001,2024-10-14_20h30.54.198,PRIYANSHI.AU2220101_motor.sequence,2024.1.5,None,2024-10-14 20h31.03.501059 +0530,
-150,z,17,3,71,3,,,,,181.05647849990055,,181.0426058000885,181.05647849990055,182.0563149000518,182.0563149000518,182.0563149000518,182.0563149000518,182.0563149000518,183.05632660002448,183.05632660002448,183.40754509996623,z,1,0.34735230007208884,None,574263,001,2024-10-14_20h30.54.198,PRIYANSHI.AU2220101_motor.sequence,2024.1.5,None,2024-10-14 20h31.03.501059 +0530,
-50,x,18,0,72,0,,,,,183.42285849992186,,183.40870860009454,183.42285849992186,184.42287039989606,184.42287039989606,184.42287039989606,184.42287039989606,184.42287039989606,185.4228719000239,185.4228719000239,185.72384230000898,x,1,0.28770129987969995,None,574263,001,2024-10-14_20h30.54.198,PRIYANSHI.AU2220101_motor.sequence,2024.1.5,None,2024-10-14 20h31.03.501059 +0530,
150,v,18,1,73,1,,,,,185.7396354000084,,185.7249094999861,185.7396354000084,186.7396402999293,186.7396402999293,186.7396402999293,186.7396402999293,186.7396402999293,187.73964649997652,187.73964649997652,188.04103600000963,v,1,0.28556200000457466,None,574263,001,2024-10-14_20h30.54.198,PRIYANSHI.AU2220101_motor.sequence,2024.1.5,None,2024-10-14 20h31.03.501059 +0530,
50,corr_resp,18,2,74,2,,,,,188.05617209989578,,188.04258710006252,188.05617209989578,189.0561852999963,189.0561852999963,189.0561852999963,189.0561852999963,189.0561852999963,190.05606279987842,190.05606279987842,190.44050080003217,c,0,0.3809732999652624,None,574263,001,2024-10-14_20h30.54.198,PRIYANSHI.AU2220101_motor.sequence,2024.1.5,None,2024-10-14 20h31.03.501059 +0530,
-150,z,18,3,75,3,,,,,190.45613069995306,,190.44159139995463,190.45613069995306,191.45625879988074,191.45625879988074,191.45625879988074,191.45625879988074,191.45625879988074,192.45622440008447,192.45622440008447,192.82379040005617,z,1,0.3530910999979824,None,574263,001,2024-10-14_20h30.54.198,PRIYANSHI.AU2220101_motor.sequence,2024.1.5,None,2024-10-14 20h31.03.501059 +0530,
-50,x,19,0,76,0,,,,,192.83939310000278,,192.8249071999453,192.83939310000278,193.83945939992554,193.83945939992554,193.83945939992554,193.83945939992554,193.83945939992554,194.8392509999685,194.8392509999685,195.2404487999156,x,1,0.39103329996578395,None,574263,001,2024-10-14_20h30.54.198,PRIYANSHI.AU2220101_motor.sequence,2024.1.5,None,2024-10-14 20h31.03.501059 +0530,
150,v,19,1,77,1,,,,,195.25603109993972,,195.2415972999297,195.25603109993972,196.25605449988507,196.25605449988507,196.25605449988507,196.25605449988507,196.25605449988507,197.25610779994167,197.25610779994167,197.8402058999054,v,1,0.5706774001009762,None,574263,001,2024-10-14_20h30.54.198,PRIYANSHI.AU2220101_motor.sequence,2024.1.5,None,2024-10-14 20h31.03.501059 +0530,
50,corr_resp,19,2,78,2,,,,,197.85623009991832,,197.84131140005775,197.85623009991832,198.8559717000462,198.8559717000462,198.8559717000462,198.8559717000462,198.8559717000462,199.85598449991085,199.85598449991085,200.1408073999919,c,0,0.28307719994336367,None,574263,001,2024-10-14_20h30.54.198,PRIYANSHI.AU2220101_motor.sequence,2024.1.5,None,2024-10-14 20h31.03.501059 +0530,
-150,z,19,3,79,3,,,,,200.15598899987526,,200.1420652999077,200.15598899987526,201.15597840002738,201.15597840002738,201.15597840002738,201.15597840002738,201.15597840002738,202.15592129994184,202.15592129994184,202.49025140004233,z,1,0.32798180007375777,None,574263,001,2024-10-14_20h30.54.198,PRIYANSHI.AU2220101_motor.sequence,2024.1.5,None,2024-10-14 20h31.03.501059 +0530,
-50,x,20,0,80,0,,,,,202.50602090009488,,202.49136650003493,202.50602090009488,203.5058762000408,203.5058762000408,203.5058762000408,203.5058762000408,203.5058762000408,204.5058214000892,204.5058214000892,204.87164340005256,x,1,0.29730589990504086,None,574263,001,2024-10-14_20h30.54.198,PRIYANSHI.AU2220101_motor.sequence,2024.1.5,None,2024-10-14 20h31.03.501059 +0530,
150,v,20,1,81,1,,,,,204.87622059998102,,204.87281450000592,204.87622059998102,205.87242890009657,205.87242890009657,205.87242890009657,205.87242890009657,205.88900319999084,206.87241220008582,206.87241220008582,207.17320229997858,v,1,0.29198930016718805,None,574263,001,2024-10-14_20h30.54.198,PRIYANSHI.AU2220101_motor.sequence,2024.1.5,None,2024-10-14 20h31.03.501059 +0530,
50,corr_resp,20,2,82,2,,,,,207.18912849994376,,207.17435129988007,207.18912849994376,208.18900389992632,208.18900389992632,208.18900389992632,208.18900389992632,208.18900389992632,209.18933829991147,209.18933829991147,209.5232859000098,c,0,0.32948870002292097,None,574263,001,2024-10-14_20h30.54.198,PRIYANSHI.AU2220101_motor.sequence,2024.1.5,None,2024-10-14 20h31.03.501059 +0530,
-150,z,20,3,83,3,,,,,209.53893220005557,,209.52439199993387,209.53893220005557,210.53908009990118,210.53908009990118,210.53908009990118,210.53908009990118,210.53908009990118,211.53901030006818,211.53901030006818,211.92325289989822,z,1,0.3817696999758482,None,574263,001,2024-10-14_20h30.54.198,PRIYANSHI.AU2220101_motor.sequence,2024.1.5,None,2024-10-14 20h31.03.501059 +0530,
-50,x,21,0,84,0,,,,,211.93893709988333,,211.9243896000553,211.93893709988333,212.93865190003999,212.93865190003999,212.93865190003999,212.93865190003999,212.93865190003999,213.93897960009053,213.93897960009053,214.28994640009478,x,1,0.3473193999379873,None,574263,001,2024-10-14_20h30.54.198,PRIYANSHI.AU2220101_motor.sequence,2024.1.5,None,2024-10-14 20h31.03.501059 +0530,
150,v,21,1,85,1,,,,,214.30549119994976,,214.29117610002868,214.30549119994976,215.30562909995206,215.30562909995206,215.30562909995206,215.30562909995206,215.30562909995206,216.30539470002986,216.30539470002986,216.63994450005703,v,1,0.3185566000174731,None,574263,001,2024-10-14_20h30.54.198,PRIYANSHI.AU2220101_motor.sequence,2024.1.5,None,2024-10-14 20h31.03.501059 +0530,
50,corr_resp,21,2,86,2,,,,,216.65556059987284,,216.6411299998872,216.65556059987284,217.65543440007605,217.65543440007605,217.65543440007605,217.65543440007605,217.65543440007605,218.6554648000747,218.6554648000747,219.0902501998935,c,0,0.4182629999704659,None,574263,001,2024-10-14_20h30.54.198,PRIYANSHI.AU2220101_motor.sequence,2024.1.5,None,2024-10-14 20h31.03.501059 +0530,
-150,z,21,3,87,3,,,,,219.105343000032,,219.09210640005767,219.105343000032,220.10544479987584,220.10544479987584,220.10544479987584,220.10544479987584,220.10544479987584,221.10545030003414,221.10545030003414,221.4729992998764,z,1,0.3615482999011874,None,574263,001,2024-10-14_20h30.54.198,PRIYANSHI.AU2220101_motor.sequence,2024.1.5,None,2024-10-14 20h31.03.501059 +0530,
-50,x,22,0,88,0,,,,,221.48866189992987,,221.47418459993787,221.48866189992987,222.4885559999384,222.4885559999384,222.4885559999384,222.4885559999384,222.4885559999384,223.48873719992116,223.48873719992116,223.87344389990903,x,1,0.3674767001066357,None,574263,001,2024-10-14_20h30.54.198,PRIYANSHI.AU2220101_motor.sequence,2024.1.5,None,2024-10-14 20h31.03.501059 +0530,
150,v,22,1,89,1,,,,,223.88848549989052,,223.87491029989906,223.88848549989052,224.8886971999891,224.8886971999891,224.8886971999891,224.8886971999891,224.8886971999891,225.8884914999362,225.8884914999362,226.25638010003604,v,1,0.35793029982596636,None,574263,001,2024-10-14_20h30.54.198,PRIYANSHI.AU2220101_motor.sequence,2024.1.5,None,2024-10-14 20h31.03.501059 +0530,
50,corr_resp,22,2,90,2,,,,,226.2718720000703,,226.25765629997477,226.2718720000703,227.2717104998883,227.2717104998883,227.2717104998883,227.2717104998883,227.2717104998883,228.27160530001856,228.27160530001856,228.68961680005305,c,0,0.41503440006636083,None,574263,001,2024-10-14_20h30.54.198,PRIYANSHI.AU2220101_motor.sequence,2024.1.5,None,2024-10-14 20h31.03.501059 +0530,
-150,z,22,3,91,3,,,,,228.7050912999548,,228.6912130001001,228.7050912999548,229.70530720008537,229.70530720008537,229.70530720008537,229.70530720008537,229.70530720008537,230.70499549992383,230.70499549992383,231.0561206000857,z,1,0.3412659999448806,None,574263,001,2024-10-14_20h30.54.198,PRIYANSHI.AU2220101_motor.sequence,2024.1.5,None,2024-10-14 20h31.03.501059 +0530,
-50,x,23,0,92,0,,,,,231.07161089987494,,231.05722759990022,231.07161089987494,232.07157699996606,232.07157699996606,232.07157699996606,232.07157699996606,232.07157699996606,233.07166910008527,233.07166910008527,233.44020830001682,x,1,0.3670234000310302,None,574263,001,2024-10-14_20h30.54.198,PRIYANSHI.AU2220101_motor.sequence,2024.1.5,None,2024-10-14 20h31.03.501059 +0530,
150,v,23,1,93,1,,,,,233.45494650001638,,233.44139990000986,233.45494650001638,234.45506499987096,234.45506499987096,234.45506499987096,234.45506499987096,234.45506499987096,235.45506269996986,235.45506269996986,235.88912270008586,v,1,0.4174840999767184,None,574263,001,2024-10-14_20h30.54.198,PRIYANSHI.AU2220101_motor.sequence,2024.1.5,None,2024-10-14 20h31.03.501059 +0530,
50,corr_resp,23,2,94,2,,,,,235.90510339988396,,235.89021399989724,235.90510339988396,236.90493580000475,236.90493580000475,236.90493580000475,236.90493580000475,236.90493580000475,237.90497120004147,237.90497120004147,238.3394156000577,c,0,0.4230402000248432,None,574263,001,2024-10-14_20h30.54.198,PRIYANSHI.AU2220101_motor.sequence,2024.1.5,None,2024-10-14 20h31.03.501059 +0530,
-150,z,23,3,95,3,,,,,238.3549053000752,,238.3405543998815,238.3549053000752,239.35473780008033,239.35473780008033,239.35473780008033,239.35473780008033,239.35473780008033,240.35491760005243,240.35491760005243,241.02248449996114,z,1,0.6539066000841558,None,574263,001,2024-10-14_20h30.54.198,PRIYANSHI.AU2220101_motor.sequence,2024.1.5,None,2024-10-14 20h31.03.501059 +0530,
-50,x,24,0,96,0,,,,,241.0381742999889,,241.0236072000116,241.0381742999889,242.03827190003358,242.03827190003358,242.03827190003358,242.03827190003358,242.03827190003358,243.03817630000412,243.03817630000412,243.57308229990304,x,1,0.5334505999926478,None,574263,001,2024-10-14_20h30.54.198,PRIYANSHI.AU2220101_motor.sequence,2024.1.5,None,2024-10-14 20h31.03.501059 +0530,
150,v,24,1,97,1,,,,,243.58813489996828,,243.5743503998965,243.58813489996828,244.58805090002716,244.58805090002716,244.58805090002716,244.58805090002716,244.58805090002716,245.58794149989262,245.58794149989262,246.03917669993825,v,1,0.43613240006379783,None,574263,001,2024-10-14_20h30.54.198,PRIYANSHI.AU2220101_motor.sequence,2024.1.5,None,2024-10-14 20h31.03.501059 +0530,
50,corr_resp,24,2,98,2,,,,,246.0547464999836,,246.04036540002562,246.0547464999836,247.054750100011,247.054750100011,247.054750100011,247.054750100011,247.054750100011,248.05472259991802,248.05472259991802,248.47245609993115,c,0,0.407607699977234,None,574263,001,2024-10-14_20h30.54.198,PRIYANSHI.AU2220101_motor.sequence,2024.1.5,None,2024-10-14 20h31.03.501059 +0530,
-150,z,24,3,99,3,,,,,248.4880637000315,,248.4735562999267,248.4880637000315,249.48812539991923,249.48812539991923,249.48812539991923,249.48812539991923,249.48812539991923,250.48792069987394,250.48792069987394,250.83893339987844,z,1,0.34212510008364916,None,574263,001,2024-10-14_20h30.54.198,PRIYANSHI.AU2220101_motor.sequence,2024.1.5,None,2024-10-14 20h31.03.501059 +0530,
-50,x,25,0,100,0,,,,,250.85464380006306,,250.84004119993187,250.85464380006306,251.85461040004157,251.85461040004157,251.85461040004157,251.85461040004157,251.85461040004157,252.8545538999606,252.8545538999606,253.1557028000243,x,1,0.2881693998351693,None,574263,001,2024-10-14_20h30.54.198,PRIYANSHI.AU2220101_motor.sequence,2024.1.5,None,2024-10-14 20h31.03.501059 +0530,
150,v,25,1,101,1,,,,,253.1713171999436,,253.1568412000779,253.1713171999436,254.17087380005978,254.17087380005978,254.17087380005978,254.17087380005978,254.17087380005978,255.17102289991453,255.17102289991453,255.52265370008536,v,1,0.34959419979713857,None,574263,001,2024-10-14_20h30.54.198,PRIYANSHI.AU2220101_motor.sequence,2024.1.5,None,2024-10-14 20h31.03.501059 +0530,
50,corr_resp,25,2,102,2,,,,,255.53769090003334,,255.52373620006256,255.53769090003334,256.5377988999244,256.5377988999244,256.5377988999244,256.5377988999244,256.5377988999244,257.53799950005487,257.53799950005487,258.7055919999257,c,0,1.1543235001154244,None,574263,001,2024-10-14_20h30.54.198,PRIYANSHI.AU2220101_motor.sequence,2024.1.5,None,2024-10-14 20h31.03.501059 +0530,
-150,z,25,3,103,3,,,,,258.7211186999921,,258.70671209995635,258.7211186999921,259.720847300021,259.720847300021,259.720847300021,259.720847300021,259.720847300021,260.7207983999979,260.7207983999979,261.05525159998797,z,1,0.3273885000962764,None,574263,001,2024-10-14_20h30.54.198,PRIYANSHI.AU2220101_motor.sequence,2024.1.5,None,2024-10-14 20h31.03.501059 +0530,
-50,x,26,0,104,0,,,,,261.0708880999591,,261.05642829998396,261.0708880999591,262.07075920002535,262.07075920002535,262.07075920002535,262.07075920002535,262.07075920002535,263.0706889999565,263.0706889999565,263.3556637999136,x,1,0.27684470009990036,None,574263,001,2024-10-14_20h30.54.198,PRIYANSHI.AU2220101_motor.sequence,2024.1.5,None,2024-10-14 20h31.03.501059 +0530,
150,v,26,1,105,1,,,,,263.37089130003005,,263.3567810000386,263.37089130003005,264.3706976000685,264.3706976000685,264.3706976000685,264.3706976000685,264.3706976000685,265.37085609999485,265.37085609999485,265.73846930009313,v,1,0.3576941001228988,None,574263,001,2024-10-14_20h30.54.198,PRIYANSHI.AU2220101_motor.sequence,2024.1.5,None,2024-10-14 20h31.03.501059 +0530,
50,corr_resp,26,2,106,2,,,,,265.75437749992125,,265.73959439992905,265.75437749992125,266.7542753999587,266.7542753999587,266.7542753999587,266.7542753999587,266.7542753999587,267.7539882999845,267.7539882999845,268.1396753001027,c,0,0.3774413000792265,None,574263,001,2024-10-14_20h30.54.198,PRIYANSHI.AU2220101_motor.sequence,2024.1.5,None,2024-10-14 20h31.03.501059 +0530,
-150,z,26,3,107,3,,,,,268.1545746999327,,268.14098250004463,268.1545746999327,269.1541883999016,269.1541883999016,269.1541883999016,269.1541883999016,269.1541883999016,270.1540165999904,270.1540165999904,270.77230899990536,z,1,0.6065758999902755,None,574263,001,2024-10-14_20h30.54.198,PRIYANSHI.AU2220101_motor.sequence,2024.1.5,None,2024-10-14 20h31.03.501059 +0530,
-50,x,27,0,108,0,,,,,270.78742689988576,,270.7736345999874,270.78742689988576,271.7873116999399,271.7873116999399,271.7873116999399,271.7873116999399,271.7873116999399,272.7874215999618,272.7874215999618,273.15512360003777,x,1,0.35828249994665384,None,574263,001,2024-10-14_20h30.54.198,PRIYANSHI.AU2220101_motor.sequence,2024.1.5,None,2024-10-14 20h31.03.501059 +0530,
150,v,27,1,109,1,,,,,273.1705817999318,,273.1562866999302,273.1705817999318,274.1705606998876,274.1705606998876,274.1705606998876,274.1705606998876,274.1705606998876,275.17042890004814,275.17042890004814,275.555145899998,v,1,0.3789669999387115,None,574263,001,2024-10-14_20h30.54.198,PRIYANSHI.AU2220101_motor.sequence,2024.1.5,None,2024-10-14 20h31.03.501059 +0530,
50,corr_resp,27,2,110,2,,,,,275.57049289997667,,275.55625839997083,275.57049289997667,276.5706327999942,276.5706327999942,276.5706327999942,276.5706327999942,276.5706327999942,277.5704109999351,277.5704109999351,277.97143979999237,c,0,0.39322010008618236,None,574263,001,2024-10-14_20h30.54.198,PRIYANSHI.AU2220101_motor.sequence,2024.1.5,None,2024-10-14 20h31.03.501059 +0530,
-150,z,27,3,111,3,,,,,277.98729839990847,,277.97257869993336,277.98729839990847,278.98722889996134,278.98722889996134,278.98722889996134,278.98722889996134,278.98722889996134,279.98717350000516,279.98717350000516,280.5882043999154,z,1,0.5863741000648588,None,574263,001,2024-10-14_20h30.54.198,PRIYANSHI.AU2220101_motor.sequence,2024.1.5,None,2024-10-14 20h31.03.501059 +0530,
-50,x,28,0,112,0,,,,,280.60368470009416,,280.58929589996114,280.60368470009416,281.60378820006736,281.60378820006736,281.60378820006736,281.60378820006736,281.60378820006736,282.6036298000254,282.6036298000254,283.02115050004795,x,1,0.4038412000518292,None,574263,001,2024-10-14_20h30.54.198,PRIYANSHI.AU2220101_motor.sequence,2024.1.5,None,2024-10-14 20h31.03.501059 +0530,
150,v,28,1,113,1,,,,,283.0370733998716,,283.02269969996996,283.0370733998716,284.037132400088,284.037132400088,284.037132400088,284.037132400088,284.037132400088,285.0369323999621,285.0369323999621,285.621803099988,v,1,0.5829595997929573,None,574263,001,2024-10-14_20h30.54.198,PRIYANSHI.AU2220101_motor.sequence,2024.1.5,None,2024-10-14 20h31.03.501059 +0530,
50,corr_resp,28,2,114,2,,,,,285.63699940009974,,285.6229971998837,285.63699940009974,286.63700810004957,286.63700810004957,286.63700810004957,286.63700810004957,286.63700810004957,287.63710199994966,287.63710199994966,288.0045926999301,c,0,0.3595587001182139,None,574263,001,2024-10-14_20h30.54.198,PRIYANSHI.AU2220101_motor.sequence,2024.1.5,None,2024-10-14 20h31.03.501059 +0530,
-150,z,28,3,115,3,,,,,288.02024169988,,288.0057175999973,288.02024169988,289.0204900999088,289.0204900999088,289.0204900999088,289.0204900999088,289.0204900999088,290.02015129989013,290.02015129989013,290.43825139990076,z,1,0.4026495001744479,None,574263,001,2024-10-14_20h30.54.198,PRIYANSHI.AU2220101_motor.sequence,2024.1.5,None,2024-10-14 20h31.03.501059 +0530,
-50,x,29,0,116,0,,,,,290.4536981000565,,290.4396609000396,290.4536981000565,291.453468099935,291.453468099935,291.453468099935,291.453468099935,291.453468099935,292.45355800003745,292.45355800003745,292.80477360007353,x,1,0.3447531000711024,None,574263,001,2024-10-14_20h30.54.198,PRIYANSHI.AU2220101_motor.sequence,2024.1.5,None,2024-10-14 20h31.03.501059 +0530,
150,v,29,1,117,1,,,,,292.82004199991934,,292.8060196998995,292.82004199991934,293.81989739998244,293.81989739998244,293.81989739998244,293.81989739998244,293.81989739998244,294.8198786000721,294.8198786000721,295.18846390000544,v,1,0.3664107001386583,None,574263,001,2024-10-14_20h30.54.198,PRIYANSHI.AU2220101_motor.sequence,2024.1.5,None,2024-10-14 20h31.03.501059 +0530,
50,corr_resp,29,2,118,2,,,,,295.2032025998924,,295.18961500003934,295.2032025998924,296.20352640002966,296.20352640002966,296.20352640002966,296.20352640002966,296.20352640002966,297.2032592999749,297.2032592999749,297.5887537000235,c,0,0.37153059989213943,None,574263,001,2024-10-14_20h30.54.198,PRIYANSHI.AU2220101_motor.sequence,2024.1.5,None,2024-10-14 20h31.03.501059 +0530,
-150,z,29,3,119,3,,,,,297.603814400034,,297.5904172998853,297.603814400034,298.6032245999668,298.6032245999668,298.6032245999668,298.6032245999668,298.6032245999668,299.60353900003247,299.60353900003247,300.4043950000778,z,1,0.787272599991411,None,574263,001,2024-10-14_20h30.54.198,PRIYANSHI.AU2220101_motor.sequence,2024.1.5,None,2024-10-14 20h31.03.501059 +0530,
-50,x,30,0,120,0,,,,,300.41973600001074,,300.40548210009,300.41973600001074,301.41986249992624,301.41986249992624,301.41986249992624,301.41986249992624,301.41986249992624,302.41982860001735,302.41982860001735,302.80460979999043,x,1,0.37053740001283586,None,574263,001,2024-10-14_20h30.54.198,PRIYANSHI.AU2220101_motor.sequence,2024.1.5,None,2024-10-14 20h31.03.501059 +0530,
150,v,30,1,121,1,,,,,302.8199493000284,,302.80553489993326,302.8199493000284,303.81978980009444,303.81978980009444,303.81978980009444,303.81978980009444,303.81978980009444,304.8194724000059,304.8194724000059,305.1710904999636,v,1,0.34847830003127456,None,574263,001,2024-10-14_20h30.54.198,PRIYANSHI.AU2220101_motor.sequence,2024.1.5,None,2024-10-14 20h31.03.501059 +0530,
50,corr_resp,30,2,122,2,,,,,305.18637589993887,,305.17252560006455,305.18637589993887,306.1865322000813,306.1865322000813,306.1865322000813,306.1865322000813,306.1865322000813,307.18643389991485,307.18643389991485,307.5707519000862,c,0,0.38004820002242923,None,574263,001,2024-10-14_20h30.54.198,PRIYANSHI.AU2220101_motor.sequence,2024.1.5,None,2024-10-14 20h31.03.501059 +0530,
-150,z,30,3,123,3,,,,,307.58630610001273,,307.5719379999209,307.58630610001273,308.58639859990217,308.58639859990217,308.58639859990217,308.58639859990217,308.58639859990217,309.58626080001704,309.58626080001704,310.47058829991147,z,1,0.87768549984321,None,574263,001,2024-10-14_20h30.54.198,PRIYANSHI.AU2220101_motor.sequence,2024.1.5,None,2024-10-14 20h31.03.501059 +0530,
-50,x,31,0,124,0,,,,,310.48630700004287,,310.4717478000093,310.48630700004287,311.486457800027,311.486457800027,311.486457800027,311.486457800027,311.486457800027,312.48617659998126,312.48617659998126,313.28750249999575,x,1,0.7924095999915153,None,574263,001,2024-10-14_20h30.54.198,PRIYANSHI.AU2220101_motor.sequence,2024.1.5,None,2024-10-14 20h31.03.501059 +0530,
150,v,31,1,125,1,,,,,313.303043599939,,313.2886113000568,313.303043599939,314.3030596000608,314.3030596000608,314.3030596000608,314.3030596000608,314.3030596000608,315.3029722000938,315.3029722000938,317.3375232000835,v,1,2.024454099824652,None,574263,001,2024-10-14_20h30.54.198,PRIYANSHI.AU2220101_motor.sequence,2024.1.5,None,2024-10-14 20h31.03.501059 +0530,
50,corr_resp,31,2,126,2,,,,,317.3528547999449,,317.3386450998951,317.3528547999449,318.35297059989534,318.35297059989534,318.35297059989534,318.35297059989534,318.35297059989534,319.3526594999712,319.3526594999712,319.88720969995484,c,0,0.5261737999971956,None,574263,001,2024-10-14_20h30.54.198,PRIYANSHI.AU2220101_motor.sequence,2024.1.5,None,2024-10-14 20h31.03.501059 +0530,
-150,z,31,3,127,3,,,,,319.90283729997464,,319.88843779987656,319.90283729997464,320.9029214999173,320.9029214999173,320.9029214999173,320.9029214999173,320.9029214999173,321.9026528999675,321.9026528999675,323.50386220007204,z,1,1.5953146000392735,None,574263,001,2024-10-14_20h30.54.198,PRIYANSHI.AU2220101_motor.sequence,2024.1.5,None,2024-10-14 20h31.03.501059 +0530,
-50,x,32,0,128,0,,,,,323.51924340007827,,323.5049946999643,323.51924340007827,324.5188879999332,324.5188879999332,324.5188879999332,324.5188879999332,324.5188879999332,325.51908380002715,325.51908380002715,326.5873384999577,x,1,1.061194899957627,None,574263,001,2024-10-14_20h30.54.198,PRIYANSHI.AU2220101_motor.sequence,2024.1.5,None,2024-10-14 20h31.03.501059 +0530,
150,v,32,1,129,1,,,,,326.60306690004654,,326.58854670007713,326.60306690004654,327.60266450000927,327.60266450000927,327.60266450000927,327.60266450000927,327.60266450000927,328.60267179994844,328.60267179994844,329.38725390005857,v,1,0.7824021999258548,None,574263,001,2024-10-14_20h30.54.198,PRIYANSHI.AU2220101_motor.sequence,2024.1.5,None,2024-10-14 20h31.03.501059 +0530,
50,corr_resp,32,2,130,2,,,,,329.40251050004736,,329.38847230002284,329.40251050004736,330.40254390006885,330.40254390006885,330.40254390006885,330.40254390006885,330.40254390006885,331.40236969990656,331.40236969990656,332.37004159996286,c,0,0.9542278998997062,None,574263,001,2024-10-14_20h30.54.198,PRIYANSHI.AU2220101_motor.sequence,2024.1.5,None,2024-10-14 20h31.03.501059 +0530,
-150,z,32,3,131,3,,,,,332.38568699988537,,332.37119339988567,332.38568699988537,333.38585419999436,333.38585419999436,333.38585419999436,333.38585419999436,333.38585419999436,334.38573149987496,334.38573149987496,335.9543532000389,z,1,1.5668621000368148,None,574263,001,2024-10-14_20h30.54.198,PRIYANSHI.AU2220101_motor.sequence,2024.1.5,None,2024-10-14 20h31.03.501059 +0530,
-50,x,33,0,132,0,,,,,335.9689660000149,,335.95570409996435,335.9689660000149,336.9690525000915,336.9690525000915,336.9690525000915,336.9690525000915,336.9690525000915,337.9688128998969,337.9688128998969,339.10344460001215,x,1,1.1301388000138104,None,574263,001,2024-10-14_20h30.54.198,PRIYANSHI.AU2220101_motor.sequence,2024.1.5,None,2024-10-14 20h31.03.501059 +0530,
150,v,33,1,133,1,,,,,339.11888640001416,,339.10456930007786,339.11888640001416,340.1187887999695,340.1187887999695,340.1187887999695,340.1187887999695,340.1187887999695,341.1188093998935,341.1188093998935,341.7534278000239,v,1,0.619401500094682,None,574263,001,2024-10-14_20h30.54.198,PRIYANSHI.AU2220101_motor.sequence,2024.1.5,None,2024-10-14 20h31.03.501059 +0530,
50,corr_resp,33,2,134,2,,,,,341.76884649996646,,341.7548360999208,341.76884649996646,342.7687210000586,342.7687210000586,342.7687210000586,342.7687210000586,342.7687210000586,343.7688893000595,343.7688893000595,344.3699229999911,c,0,0.5983765998389572,None,574263,001,2024-10-14_20h30.54.198,PRIYANSHI.AU2220101_motor.sequence,2024.1.5,None,2024-10-14 20h31.03.501059 +0530,
-150,z,33,3,135,3,,,,,344.38536880002357,,344.3710431999061,344.38536880002357,345.3855709999334,345.3855709999334,345.3855709999334,345.3855709999334,345.3855709999334,346.38544830004685,346.38544830004685,347.35326789994724,z,1,0.9529981999658048,None,574263,001,2024-10-14_20h30.54.198,PRIYANSHI.AU2220101_motor.sequence,2024.1.5,None,2024-10-14 20h31.03.501059 +0530,
-50,x,34,0,136,0,,,,,347.3686790999491,,347.3545548999682,347.3686790999491,348.36871770001017,348.36871770001017,348.36871770001017,348.36871770001017,348.36871770001017,349.3684926999267,349.3684926999267,349.7367394999601,x,1,0.35351809998974204,None,574263,001,2024-10-14_20h30.54.198,PRIYANSHI.AU2220101_motor.sequence,2024.1.5,None,2024-10-14 20h31.03.501059 +0530,
150,v,34,1,137,1,,,,,349.75220189988613,,349.7383379000239,349.75220189988613,350.75191630003974,350.75191630003974,350.75191630003974,350.75191630003974,350.75191630003974,351.751870600041,351.751870600041,352.08652650006115,v,1,0.3306171998847276,None,574263,001,2024-10-14_20h30.54.198,PRIYANSHI.AU2220101_motor.sequence,2024.1.5,None,2024-10-14 20h31.03.501059 +0530,
50,corr_resp,34,2,138,2,,,,,352.10180169995874,,352.0876579999458,352.10180169995874,353.1017193000298,353.1017193000298,353.1017193000298,353.1017193000298,353.1017193000298,354.1019015999045,354.1019015999045,354.4362011998892,c,0,0.3240765000227839,None,574263,001,2024-10-14_20h30.54.198,PRIYANSHI.AU2220101_motor.sequence,2024.1.5,None,2024-10-14 20h31.03.501059 +0530,
-150,z,34,3,139,3,,,,,354.45193209988065,,354.4372847999912,354.45193209988065,355.4518371000886,355.4518371000886,355.4518371000886,355.4518371000886,355.4518371000886,356.4515945999883,356.4515945999883,357.0368780998979,z,1,0.5839876001700759,None,574263,001,2024-10-14_20h30.54.198,PRIYANSHI.AU2220101_motor.sequence,2024.1.5,None,2024-10-14 20h31.03.501059 +0530,
-50,x,35,0,140,0,,,,,357.0517368998844,,357.0380722999107,357.0517368998844,358.0517837998923,358.0517837998923,358.0517837998923,358.0517837998923,358.0517837998923,359.05176319996826,359.05176319996826,360.8528004998807,x,1,1.788282599998638,None,574263,001,2024-10-14_20h30.54.198,PRIYANSHI.AU2220101_motor.sequence,2024.1.5,None,2024-10-14 20h31.03.501059 +0530,
150,v,35,1,141,1,,,,,360.8682397000957,,360.8539829000365,360.8682397000957,361.868324900046,361.868324900046,361.868324900046,361.868324900046,361.868324900046,362.86822280008346,362.86822280008346,363.7368779000826,v,1,0.8668050998821855,None,574263,001,2024-10-14_20h30.54.198,PRIYANSHI.AU2220101_motor.sequence,2024.1.5,None,2024-10-14 20h31.03.501059 +0530,
50,corr_resp,35,2,142,2,,,,,363.7515126999933,,363.73816270008683,363.7515126999933,364.75165440002456,364.75165440002456,364.75165440002456,364.75165440002456,364.75165440002456,365.7515390999615,365.7515390999615,366.78598610009067,c,0,1.01938459998928,None,574263,001,2024-10-14_20h30.54.198,PRIYANSHI.AU2220101_motor.sequence,2024.1.5,None,2024-10-14 20h31.03.501059 +0530,
-150,z,35,3,143,3,,,,,366.8014100000728,,366.7882358999923,366.8014100000728,367.8014847000595,367.8014847000595,367.8014847000595,367.8014847000595,367.8014847000595,368.8014863000717,368.8014863000717,369.5355215999298,z,1,0.7172621998470277,None,574263,001,2024-10-14_20h30.54.198,PRIYANSHI.AU2220101_motor.sequence,2024.1.5,None,2024-10-14 20h31.03.501059 +0530,
-50,x,36,0,144,0,,,,,369.551557400031,,369.53662279993296,369.551557400031,370.55135519988835,370.55135519988835,370.55135519988835,370.55135519988835,370.55135519988835,371.5513218000997,371.5513218000997,371.98569749994203,x,1,0.4221747999545187,None,574263,001,2024-10-14_20h30.54.198,PRIYANSHI.AU2220101_motor.sequence,2024.1.5,None,2024-10-14 20h31.03.501059 +0530,
150,v,36,1,145,1,,,,,372.0013137999922,,371.986782199936,372.0013137999922,373.00150689994916,373.00150689994916,373.00150689994916,373.00150689994916,373.00150689994916,374.001501099905,374.001501099905,374.3191543999128,v,1,0.3027228999417275,None,574263,001,2024-10-14_20h30.54.198,PRIYANSHI.AU2220101_motor.sequence,2024.1.5,None,2024-10-14 20h31.03.501059 +0530,
50,corr_resp,36,2,146,2,,,,,374.3345536000561,,374.32033869996667,374.3345536000561,375.3346432999242,375.3346432999242,375.3346432999242,375.3346432999242,375.3346432999242,376.3346605999395,376.3346605999395,377.08595340000466,c,0,0.736971199978143,None,574263,001,2024-10-14_20h30.54.198,PRIYANSHI.AU2220101_motor.sequence,2024.1.5,None,2024-10-14 20h31.03.501059 +0530,
-150,z,36,3,147,3,,,,,377.1014308000449,,377.08703919989057,377.1014308000449,378.1011516000144,378.1011516000144,378.1011516000144,378.1011516000144,378.1011516000144,379.1012283000164,379.1012283000164,379.7855690000579,z,1,0.6790990000590682,None,574263,001,2024-10-14_20h30.54.198,PRIYANSHI.AU2220101_motor.sequence,2024.1.5,None,2024-10-14 20h31.03.501059 +0530,
-50,x,37,0,148,0,,,,,379.8012518999167,,379.786718999967,379.8012518999167,380.80128620006144,380.80128620006144,380.80128620006144,380.80128620006144,380.80128620006144,381.8011515000835,381.8011515000835,382.1854443999473,x,1,0.3717201999388635,None,574263,001,2024-10-14_20h30.54.198,PRIYANSHI.AU2220101_motor.sequence,2024.1.5,None,2024-10-14 20h31.03.501059 +0530,
150,v,37,1,149,1,,,,,382.20110679999925,,382.1866615000181,382.20110679999925,383.2010925000068,383.2010925000068,383.2010925000068,383.2010925000068,383.2010925000068,384.20118439989164,384.20118439989164,384.58529959991574,v,1,0.36716379993595183,None,574263,001,2024-10-14_20h30.54.198,PRIYANSHI.AU2220101_motor.sequence,2024.1.5,None,2024-10-14 20h31.03.501059 +0530,
50,corr_resp,37,2,150,2,,,,,384.60123659996316,,384.5864283000119,384.60123659996316,385.6011171999853,385.6011171999853,385.6011171999853,385.6011171999853,385.6011171999853,386.6009895000607,386.6009895000607,386.9187556998804,c,0,0.31083060009405017,None,574263,001,2024-10-14_20h30.54.198,PRIYANSHI.AU2220101_motor.sequence,2024.1.5,None,2024-10-14 20h31.03.501059 +0530,
-150,z,37,3,151,3,,,,,386.9345539000351,,386.9198662999552,386.9345539000351,387.93428779998794,387.93428779998794,387.93428779998794,387.93428779998794,387.93428779998794,388.9343091000337,388.9343091000337,389.3019359000027,z,1,0.351173099828884,None,574263,001,2024-10-14_20h30.54.198,PRIYANSHI.AU2220101_motor.sequence,2024.1.5,None,2024-10-14 20h31.03.501059 +0530,
-50,x,38,0,152,0,,,,,389.31743040005676,,389.3030369998887,389.31743040005676,390.31750210002065,390.31750210002065,390.31750210002065,390.31750210002065,390.31750210002065,391.3174826998729,391.3174826998729,391.9855291999411,x,1,0.659823700087145,None,574263,001,2024-10-14_20h30.54.198,PRIYANSHI.AU2220101_motor.sequence,2024.1.5,None,2024-10-14 20h31.03.501059 +0530,
150,v,38,1,153,1,,,,,392.0009008999914,,391.9868830998894,392.0009008999914,393.0008791999426,393.0008791999426,393.0008791999426,393.0008791999426,393.0008791999426,394.00079769990407,394.00079769990407,394.3852965000551,v,1,0.3703664999920875,None,574263,001,2024-10-14_20h30.54.198,PRIYANSHI.AU2220101_motor.sequence,2024.1.5,None,2024-10-14 20h31.03.501059 +0530,
50,corr_resp,38,2,154,2,,,,,394.40091910003684,,394.38650409993716,394.40091910003684,395.40100369998254,395.40100369998254,395.40100369998254,395.40100369998254,395.40100369998254,396.4009241000749,396.4009241000749,397.2854007000569,c,0,0.8724068000447005,None,574263,001,2024-10-14_20h30.54.198,PRIYANSHI.AU2220101_motor.sequence,2024.1.5,None,2024-10-14 20h31.03.501059 +0530,
-150,z,38,3,155,3,,,,,397.300776100019,,397.2865826000925,397.300776100019,398.3006635000929,398.3006635000929,398.3006635000929,398.3006635000929,398.3006635000929,399.30067840008996,399.30067840008996,399.7017031998839,z,1,0.3910711999051273,None,574263,001,2024-10-14_20h30.54.198,PRIYANSHI.AU2220101_motor.sequence,2024.1.5,None,2024-10-14 20h31.03.501059 +0530,
-50,x,39,0,156,0,,,,,399.71738640009426,,399.7028979999013,399.71738640009426,400.71727570006624,400.71727570006624,400.71727570006624,400.71727570006624,400.71727570006624,401.7170074998867,401.7170074998867,402.0849317999091,x,1,0.35952880000695586,None,574263,001,2024-10-14_20h30.54.198,PRIYANSHI.AU2220101_motor.sequence,2024.1.5,None,2024-10-14 20h31.03.501059 +0530,
150,v,39,1,157,1,,,,,402.1007365998812,,402.0860675999429,402.1007365998812,403.10057249991223,403.10057249991223,403.10057249991223,403.10057249991223,403.10057249991223,404.10069820005447,404.10069820005447,404.4185444000177,v,1,0.31026329984888434,None,574263,001,2024-10-14_20h30.54.198,PRIYANSHI.AU2220101_motor.sequence,2024.1.5,None,2024-10-14 20h31.03.501059 +0530,
50,corr_resp,39,2,158,2,,,,,404.4340748998802,,404.41969870007597,404.4340748998802,405.43394210003316,405.43394210003316,405.43394210003316,405.43394210003316,405.43394210003316,406.4338062000461,406.4338062000461,407.00133359991014,c,0,0.5526386999990791,None,574263,001,2024-10-14_20h30.54.198,PRIYANSHI.AU2220101_motor.sequence,2024.1.5,None,2024-10-14 20h31.03.501059 +0530,
-150,z,39,3,159,3,,,,,407.0171083000023,,407.00248780008405,407.0171083000023,408.0170763998758,408.0170763998758,408.0170763998758,408.0170763998758,408.0170763998758,409.01691489992663,409.01691489992663,410.33523959992453,z,1,1.3019916999619454,None,574263,001,2024-10-14_20h30.54.198,PRIYANSHI.AU2220101_motor.sequence,2024.1.5,None,2024-10-14 20h31.03.501059 +0530,
-50,x,40,0,160,0,,,,,410.3503707998898,,410.336559999967,410.3503707998898,411.35019190004095,411.35019190004095,411.35019190004095,411.35019190004095,411.35019190004095,412.35023099998944,412.35023099998944,412.71788370003924,x,1,0.3597516999579966,None,574263,001,2024-10-14_20h30.54.198,PRIYANSHI.AU2220101_motor.sequence,2024.1.5,None,2024-10-14 20h31.03.501059 +0530,
150,v,40,1,161,1,,,,,412.7338926999364,,412.7190024999436,412.7338926999364,413.7339359000325,413.7339359000325,413.7339359000325,413.7339359000325,413.7339359000325,414.73345490009524,414.73345490009524,415.4177431000862,v,1,0.6708978998940438,None,574263,001,2024-10-14_20h30.54.198,PRIYANSHI.AU2220101_motor.sequence,2024.1.5,None,2024-10-14 20h31.03.501059 +0530,
50,corr_resp,40,2,162,2,,,,,415.4334269000683,,415.4188395999372,415.4334269000683,416.43342959997244,416.43342959997244,416.43342959997244,416.43342959997244,416.43342959997244,417.4334394999314,417.4334394999314,417.784794999985,c,0,0.33966060006059706,None,574263,001,2024-10-14_20h30.54.198,PRIYANSHI.AU2220101_motor.sequence,2024.1.5,None,2024-10-14 20h31.03.501059 +0530,
-150,z,40,3,163,3,,,,,417.80014490010217,,417.78590589994565,417.80014490010217,418.8000423000194,418.8000423000194,418.8000423000194,418.8000423000194,418.8000423000194,419.80009289993905,419.80009289993905,420.4179817000404,z,1,0.6080362000502646,None,574263,001,2024-10-14_20h30.54.198,PRIYANSHI.AU2220101_motor.sequence,2024.1.5,None,2024-10-14 20h31.03.501059 +0530,
-50,x,41,0,164,0,,,,,420.43350819987245,,420.4194491999224,420.43350819987245,421.43330179993063,421.43330179993063,421.43330179993063,421.43330179993063,421.43330179993063,422.4336488000117,422.4336488000117,422.7512286999263,x,1,0.3124365000985563,None,574263,001,2024-10-14_20h30.54.198,PRIYANSHI.AU2220101_motor.sequence,2024.1.5,None,2024-10-14 20h31.03.501059 +0530,
150,v,41,1,165,1,,,,,422.76662899996154,,422.7523375998717,422.76662899996154,423.76675139996223,423.76675139996223,423.76675139996223,423.76675139996223,423.76675139996223,424.7666076000314,424.7666076000314,425.1173570000101,v,1,0.33849680004641414,None,574263,001,2024-10-14_20h30.54.198,PRIYANSHI.AU2220101_motor.sequence,2024.1.5,None,2024-10-14 20h31.03.501059 +0530,
50,corr_resp,41,2,166,2,,,,,425.1332163999323,,425.11904660006985,425.1332163999323,426.13321310002357,426.13321310002357,426.13321310002357,426.13321310002357,426.13321310002357,427.1332858998794,427.1332858998794,427.45094639994204,c,0,0.31255889986641705,None,574263,001,2024-10-14_20h30.54.198,PRIYANSHI.AU2220101_motor.sequence,2024.1.5,None,2024-10-14 20h31.03.501059 +0530,
-150,z,41,3,167,3,,,,,427.4666170999408,,427.452039900003,427.4666170999408,428.46652429993264,428.46652429993264,428.46652429993264,428.46652429993264,428.46652429993264,429.4665232000407,429.4665232000407,429.85117219993845,z,1,0.3819810999557376,None,574263,001,2024-10-14_20h30.54.198,PRIYANSHI.AU2220101_motor.sequence,2024.1.5,None,2024-10-14 20h31.03.501059 +0530,
-50,x,42,0,168,0,,,,,429.86647009989247,,429.8523275000043,429.86647009989247,430.86642209999263,430.86642209999263,430.86642209999263,430.86642209999263,430.86642209999263,431.8663105000742,431.8663105000742,432.2172075000126,x,1,0.3476443998515606,None,574263,001,2024-10-14_20h30.54.198,PRIYANSHI.AU2220101_motor.sequence,2024.1.5,None,2024-10-14 20h31.03.501059 +0530,
150,v,42,1,169,1,,,,,432.23307970003225,,432.2183097000234,432.23307970003225,433.23304320010357,433.23304320010357,433.23304320010357,433.23304320010357,433.23304320010357,434.2330835000612,434.2330835000612,434.53470339998603,v,1,0.2993900999426842,None,574263,001,2024-10-14_20h30.54.198,PRIYANSHI.AU2220101_motor.sequence,2024.1.5,None,2024-10-14 20h31.03.501059 +0530,
50,corr_resp,42,2,170,2,,,,,434.54965639999136,,434.5358011999633,434.54965639999136,435.54966129991226,435.54966129991226,435.54966129991226,435.54966129991226,435.54966129991226,436.5496374000795,436.5496374000795,436.88423219998367,c,0,0.32757259998470545,None,574263,001,2024-10-14_20h30.54.198,PRIYANSHI.AU2220101_motor.sequence,2024.1.5,None,2024-10-14 20h31.03.501059 +0530,
-150,z,42,3,171,3,,,,,436.89972999994643,,436.88538299989887,436.89972999994643,437.89955709991045,437.89955709991045,437.89955709991045,437.89955709991045,437.89955709991045,438.89961019996554,438.89961019996554,439.2006381000392,z,1,0.29020099993795156,None,574263,001,2024-10-14_20h30.54.198,PRIYANSHI.AU2220101_motor.sequence,2024.1.5,None,2024-10-14 20h31.03.501059 +0530,
-50,x,43,0,172,0,,,,,439.21617099992,,439.20174399996176,439.21617099992,440.2163247000426,440.2163247000426,440.2163247000426,440.2163247000426,440.2163247000426,441.2161602000706,441.2161602000706,441.83396050008014,x,1,0.613573000067845,None,574263,001,2024-10-14_20h30.54.198,PRIYANSHI.AU2220101_motor.sequence,2024.1.5,None,2024-10-14 20h31.03.501059 +0530,
150,v,43,1,173,1,,,,,441.8496169000864,,441.835184100084,441.8496169000864,442.84946099994704,442.84946099994704,442.84946099994704,442.84946099994704,442.84946099994704,443.8494770999532,443.8494770999532,444.2338191999588,v,1,0.37538530002348125,None,574263,001,2024-10-14_20h30.54.198,PRIYANSHI.AU2220101_motor.sequence,2024.1.5,None,2024-10-14 20h31.03.501059 +0530,
50,corr_resp,43,2,174,2,,,,,444.2495814000722,,444.23501179995947,444.2495814000722,445.2493543999735,445.2493543999735,445.2493543999735,445.2493543999735,445.2493543999735,446.2493425998837,446.2493425998837,446.5839996000286,c,0,0.33273159991949797,None,574263,001,2024-10-14_20h30.54.198,PRIYANSHI.AU2220101_motor.sequence,2024.1.5,None,2024-10-14 20h31.03.501059 +0530,
-150,z,43,3,175,3,,,,,446.5993162000086,,446.58502670004964,446.5993162000086,447.5994625999592,447.5994625999592,447.5994625999592,447.5994625999592,447.5994625999592,448.5993987999391,448.5993987999391,448.8670793999918,z,1,0.25539160007610917,None,574263,001,2024-10-14_20h30.54.198,PRIYANSHI.AU2220101_motor.sequence,2024.1.5,None,2024-10-14 20h31.03.501059 +0530,
-50,x,44,0,176,0,,,,,448.88259220006876,,448.8681590000633,448.88259220006876,449.8824779998977,449.8824779998977,449.8824779998977,449.8824779998977,449.8824779998977,450.88283540005796,450.88283540005796,451.21734549989924,x,1,0.3183621000498533,None,574263,001,2024-10-14_20h30.54.198,PRIYANSHI.AU2220101_motor.sequence,2024.1.5,None,2024-10-14 20h31.03.501059 +0530,
150,v,44,1,177,1,,,,,451.2326328998897,,451.21862030006014,451.2326328998897,452.2324854999315,452.2324854999315,452.2324854999315,452.2324854999315,452.2324854999315,453.23272229987197,453.23272229987197,453.550347100012,v,1,0.3069369997829199,None,574263,001,2024-10-14_20h30.54.198,PRIYANSHI.AU2220101_motor.sequence,2024.1.5,None,2024-10-14 20h31.03.501059 +0530,
50,corr_resp,44,2,178,2,,,,,453.56573259993456,,453.5514660999179,453.56573259993456,454.56579890009016,454.56579890009016,454.56579890009016,454.56579890009016,454.56579890009016,455.5657758000307,455.5657758000307,455.9504009000957,c,0,0.37985989986918867,None,574263,001,2024-10-14_20h30.54.198,PRIYANSHI.AU2220101_motor.sequence,2024.1.5,None,2024-10-14 20h31.03.501059 +0530,
-150,z,44,3,179,3,,,,,455.9656565000769,,455.9516014000401,455.9656565000769,456.96582909999415,456.96582909999415,456.96582909999415,456.96582909999415,456.96582909999415,457.9655752000399,457.9655752000399,459.65034759999253,z,1,1.674126099795103,None,574263,001,2024-10-14_20h30.54.198,PRIYANSHI.AU2220101_motor.sequence,2024.1.5,None,2024-10-14 20h31.03.501059 +0530,
-50,x,45,0,180,0,,,,,459.665655199904,,459.65145260002464,459.665655199904,460.66561809997074,460.66561809997074,460.66561809997074,460.66561809997074,460.66561809997074,461.66541239991784,461.66541239991784,465.95001549995504,c,0,4.268545399885625,None,574263,001,2024-10-14_20h30.54.198,PRIYANSHI.AU2220101_motor.sequence,2024.1.5,None,2024-10-14 20h31.03.501059 +0530,
150,v,45,1,181,1,,,,,465.96547769987956,,465.9511347999796,465.96547769987956,466.9655023999512,466.9655023999512,466.9655023999512,466.9655023999512,466.9655023999512,467.9654846000485,467.9654846000485,469.86669549997896,v,1,1.8916442999616265,None,574263,001,2024-10-14_20h30.54.198,PRIYANSHI.AU2220101_motor.sequence,2024.1.5,None,2024-10-14 20h31.03.501059 +0530,
50,corr_resp,45,2,182,2,,,,,469.88214490003884,,469.8676829999313,469.88214490003884,470.8821803999599,470.8821803999599,470.8821803999599,470.8821803999599,470.8821803999599,471.8821819999721,471.8821819999721,474.11647020000964,c,0,2.2177250999957323,None,574263,001,2024-10-14_20h30.54.198,PRIYANSHI.AU2220101_motor.sequence,2024.1.5,None,2024-10-14 20h31.03.501059 +0530,
-150,z,45,3,183,3,,,,,474.13203030009754,,474.118079100037,474.13203030009754,475.13216320006177,475.13216320006177,475.13216320006177,475.13216320006177,475.13216320006177,476.1321268999018,476.1321268999018,476.64994810009375,z,1,0.5035298001021147,None,574263,001,2024-10-14_20h30.54.198,PRIYANSHI.AU2220101_motor.sequence,2024.1.5,None,2024-10-14 20h31.03.501059 +0530,
-50,x,46,0,184,0,,,,,476.66499789990485,,476.6514657998923,476.66499789990485,477.6650811000727,477.6650811000727,477.6650811000727,477.6650811000727,477.6650811000727,478.6651753000915,478.6651753000915,479.4162550000474,x,1,0.7434833000879735,None,574263,001,2024-10-14_20h30.54.198,PRIYANSHI.AU2220101_motor.sequence,2024.1.5,None,2024-10-14 20h31.03.501059 +0530,
150,v,46,1,185,1,,,,,479.43189070001245,,479.41790289990604,479.43189070001245,480.43191300006583,480.43191300006583,480.43191300006583,480.43191300006583,480.43191300006583,481.4318128998857,481.4318128998857,483.21683220006526,v,1,1.7777892001904547,None,574263,001,2024-10-14_20h30.54.198,PRIYANSHI.AU2220101_motor.sequence,2024.1.5,None,2024-10-14 20h31.03.501059 +0530,
50,corr_resp,46,2,186,2,,,,,483.2316574999131,,483.2178146999795,483.2316574999131,484.23162980005145,484.23162980005145,484.23162980005145,484.23162980005145,484.23162980005145,485.23163829999976,485.23163829999976,485.76661089994013,c,0,0.5324725999962538,None,574263,001,2024-10-14_20h30.54.198,PRIYANSHI.AU2220101_motor.sequence,2024.1.5,None,2024-10-14 20h31.03.501059 +0530,
-150,z,46,3,187,3,,,,,485.7817343000788,,485.76785230007954,485.7817343000788,486.78173929988407,486.78173929988407,486.78173929988407,486.78173929988407,486.78173929988407,487.78151250001974,487.78151250001974,488.8158982999157,z,1,1.03119369992055,None,574263,001,2024-10-14_20h30.54.198,PRIYANSHI.AU2220101_motor.sequence,2024.1.5,None,2024-10-14 20h31.03.501059 +0530,
-50,x,47,0,188,0,,,,,488.8315657998901,,488.8169859999325,488.8315657998901,489.83160010003485,489.83160010003485,489.83160010003485,489.83160010003485,489.83160010003485,490.83153359987773,490.83153359987773,491.13325319997966,x,1,0.30004439991898835,None,574263,001,2024-10-14_20h30.54.198,PRIYANSHI.AU2220101_motor.sequence,2024.1.5,None,2024-10-14 20h31.03.501059 +0530,
150,v,47,1,189,1,,,,,491.1480926000513,,491.1350489000324,491.1480926000513,492.1482645000797,492.1482645000797,492.1482645000797,492.1482645000797,492.1482645000797,493.1481039999053,493.1481039999053,493.49922339990735,v,1,0.345978100085631,None,574263,001,2024-10-14_20h30.54.198,PRIYANSHI.AU2220101_motor.sequence,2024.1.5,None,2024-10-14 20h31.03.501059 +0530,
50,corr_resp,47,2,190,2,,,,,493.514824999962,,493.50039849989116,493.514824999962,494.51468360004947,494.51468360004947,494.51468360004947,494.51468360004947,494.51468360004947,495.51465149992146,495.51465149992146,496.49913779995404,v,0,0.9737804001197219,None,574263,001,2024-10-14_20h30.54.198,PRIYANSHI.AU2220101_motor.sequence,2024.1.5,None,2024-10-14 20h31.03.501059 +0530,
-150,z,47,3,191,3,,,,,496.51473250007257,,496.5002454998903,496.51473250007257,497.5146812000312,497.5146812000312,497.5146812000312,497.5146812000312,497.5146812000312,498.514554399997,498.514554399997,499.39920239988714,z,1,0.87520039989613,None,574263,001,2024-10-14_20h30.54.198,PRIYANSHI.AU2220101_motor.sequence,2024.1.5,None,2024-10-14 20h31.03.501059 +0530,
-50,x,48,0,192,0,,,,,499.41482429997995,,499.4015999000985,499.41482429997995,500.4145168000832,500.4145168000832,500.4145168000832,500.4145168000832,500.4145168000832,501.4143979998771,501.4143979998771,501.7493036000524,x,1,0.3196258000098169,None,574263,001,2024-10-14_20h30.54.198,PRIYANSHI.AU2220101_motor.sequence,2024.1.5,None,2024-10-14 20h31.03.501059 +0530,
150,v,48,1,193,1,,,,,501.7646149999928,,501.75067099998705,501.7646149999928,502.76450440008193,502.76450440008193,502.76450440008193,502.76450440008193,502.76450440008193,503.76439719996415,503.76439719996415,504.6154656999279,v,1,0.8347690000664443,None,574263,001,2024-10-14_20h30.54.198,PRIYANSHI.AU2220101_motor.sequence,2024.1.5,None,2024-10-14 20h31.03.501059 +0530,
50,corr_resp,48,2,194,2,,,,,504.6311617998872,,504.6166095000226,504.6311617998872,505.6311011998914,505.6311011998914,505.6311011998914,505.6311011998914,505.6311011998914,506.6311759999953,506.6311759999953,507.08217369997874,c,0,0.4466872001066804,None,574263,001,2024-10-14_20h30.54.198,PRIYANSHI.AU2220101_motor.sequence,2024.1.5,None,2024-10-14 20h31.03.501059 +0530,
-150,z,48,3,195,3,,,,,507.0976783998776,,507.08330009994097,507.0976783998776,508.09774639992975,508.09774639992975,508.09774639992975,508.09774639992975,508.09774639992975,509.0976473998744,509.0976473998744,510.79877160000615,z,1,1.6914195001590997,None,574263,001,2024-10-14_20h30.54.198,PRIYANSHI.AU2220101_motor.sequence,2024.1.5,None,2024-10-14 20h31.03.501059 +0530,
-50,x,49,0,196,0,,,,,510.8142073000781,,510.8000952999573,510.8142073000781,511.8144175999332,511.8144175999332,511.8144175999332,511.8144175999332,511.8144175999332,512.8141117000487,512.8141117000487,514.0323953998741,x,1,1.202278999844566,None,574263,001,2024-10-14_20h30.54.198,PRIYANSHI.AU2220101_motor.sequence,2024.1.5,None,2024-10-14 20h31.03.501059 +0530,
150,v,49,1,197,1,,,,,514.0475709999446,,514.0338387999218,514.0475709999446,515.0477404000703,515.0477404000703,515.0477404000703,515.0477404000703,515.0477404000703,516.0476565000135,516.0476565000135,516.882107200101,v,1,0.8321565000806004,None,574263,001,2024-10-14_20h30.54.198,PRIYANSHI.AU2220101_motor.sequence,2024.1.5,None,2024-10-14 20h31.03.501059 +0530,
50,corr_resp,49,2,198,2,,,,,516.8976298000198,,516.8832628999371,516.8976298000198,517.8975388000254,517.8975388000254,517.8975388000254,517.8975388000254,517.8975388000254,518.8974897998851,518.8974897998851,519.4317640000954,c,0,0.5209948997944593,None,574263,001,2024-10-14_20h30.54.198,PRIYANSHI.AU2220101_motor.sequence,2024.1.5,None,2024-10-14 20h31.03.501059 +0530,
-150,z,49,3,199,3,,,,,519.4474669999909,,519.4332546000369,519.4474669999909,520.4476562000345,520.4476562000345,520.4476562000345,520.4476562000345,520.4476562000345,521.4475032000337,521.4475032000337,522.3983970999252,z,1,0.9366181001532823,None,574263,001,2024-10-14_20h30.54.198,PRIYANSHI.AU2220101_motor.sequence,2024.1.5,None,2024-10-14 20h31.03.501059 +0530,
-150,z,,,,,0,0,0,3,522.41932919994,,522.4156420000363,522.41932919994,523.4139382999856,523.4139382999856,523.4139382999856,523.4139382999856,523.4306483000983,524.4141404998954,524.4141404998954,525.8982442999259,z,1,1.4682398000732064,None,574263,001,2024-10-14_20h30.54.198,PRIYANSHI.AU2220101_motor.sequence,2024.1.5,None,2024-10-14 20h31.03.501059 +0530,
50,corr_resp,,,,,0,1,1,2,525.9137154000346,,525.8994579000864,525.9137154000346,526.9138805000111,526.9138805000111,526.9138805000111,526.9138805000111,526.9138805000111,527.9139024999458,527.9139024999458,528.8816686000209,c,0,0.9644565999042243,None,574263,001,2024-10-14_20h30.54.198,PRIYANSHI.AU2220101_motor.sequence,2024.1.5,None,2024-10-14 20h31.03.501059 +0530,
150,v,,,,,0,2,2,1,528.8973479000852,,528.883095700061,528.8973479000852,529.8973083999008,529.8973083999008,529.8973083999008,529.8973083999008,529.8973083999008,530.8970937998965,530.8970937998965,532.01496890001,v,1,1.1030280999839306,None,574263,001,2024-10-14_20h30.54.198,PRIYANSHI.AU2220101_motor.sequence,2024.1.5,None,2024-10-14 20h31.03.501059 +0530,
50,corr_resp,,,,,0,3,3,2,532.0303287999704,,532.016097499989,532.0303287999704,533.0303738000803,533.0303738000803,533.0303738000803,533.0303738000803,533.0303738000803,534.0306007999461,534.0306007999461,534.9312485998962,c,0,0.890568400034681,None,574263,001,2024-10-14_20h30.54.198,PRIYANSHI.AU2220101_motor.sequence,2024.1.5,None,2024-10-14 20h31.03.501059 +0530,
50,corr_resp,,,,,1,0,4,2,534.9470814000815,,534.9323708000593,534.9470814000815,535.9471320000011,535.9471320000011,535.9471320000011,535.9471320000011,535.9471320000011,536.9470706998836,536.9470706998836,537.6810598000884,c,0,0.7200813998933882,None,574263,001,2024-10-14_20h30.54.198,PRIYANSHI.AU2220101_motor.sequence,2024.1.5,None,2024-10-14 20h31.03.501059 +0530,
-150,z,,,,,1,1,5,3,537.6971114000771,,537.6821854000445,537.6971114000771,538.6969419999514,538.6969419999514,538.6969419999514,538.6969419999514,538.6969419999514,539.6968934999313,539.6968934999313,540.6313185000326,z,1,0.9304919000715017,None,574263,001,2024-10-14_20h30.54.198,PRIYANSHI.AU2220101_motor.sequence,2024.1.5,None,2024-10-14 20h31.03.501059 +0530,
150,v,,,,,1,2,6,1,540.6469680999871,,540.6326317999046,540.6469680999871,541.6466250999365,541.6466250999365,541.6466250999365,541.6466250999365,541.6466250999365,542.6466105000582,542.6466105000582,543.8313472000882,v,1,1.179657000117004,None,574263,001,2024-10-14_20h30.54.198,PRIYANSHI.AU2220101_motor.sequence,2024.1.5,None,2024-10-14 20h31.03.501059 +0530,
-150,z,,,,,1,3,7,3,543.8469130001031,,543.8326669000089,543.8469130001031,544.8470220998861,544.8470220998861,544.8470220998861,544.8470220998861,544.8470220998861,545.8467586999759,545.8467586999759,546.631038099993,z,1,0.7680261000059545,None,574263,001,2024-10-14_20h30.54.198,PRIYANSHI.AU2220101_motor.sequence,2024.1.5,None,2024-10-14 20h31.03.501059 +0530,
150,v,,,,,2,0,8,1,546.6468634998892,,546.6321821999736,546.6468634998892,547.6469705000054,547.6469705000054,547.6469705000054,547.6469705000054,547.6469705000054,548.6467659999616,548.6467659999616,549.6976820998825,v,1,1.0470184001605958,None,574263,001,2024-10-14_20h30.54.198,PRIYANSHI.AU2220101_motor.sequence,2024.1.5,None,2024-10-14 20h31.03.501059 +0530,
50,corr_resp,,,,,2,1,9,2,549.713388199918,,549.698809399968,549.713388199918,550.7132683000527,550.7132683000527,550.7132683000527,550.7132683000527,550.7132683000527,551.7130996000487,551.7130996000487,552.2815179000609,c,0,0.5600904000457376,None,574263,001,2024-10-14_20h30.54.198,PRIYANSHI.AU2220101_motor.sequence,2024.1.5,None,2024-10-14 20h31.03.501059 +0530,
-150,z,,,,,2,2,10,3,552.2967117999215,,552.2826439999044,552.2967117999215,553.2965953000821,553.2965953000821,553.2965953000821,553.2965953000821,553.2965953000821,554.2964429000858,554.2964429000858,554.9645092999563,z,1,0.6657583999913186,None,574263,001,2024-10-14_20h30.54.198,PRIYANSHI.AU2220101_motor.sequence,2024.1.5,None,2024-10-14 20h31.03.501059 +0530,
50,corr_resp,,,,,2,3,11,2,554.9798395000398,,554.9661101999227,554.9798395000398,555.9799063000828,555.9799063000828,555.9799063000828,555.9799063000828,555.9799063000828,556.9797437000088,556.9797437000088,557.6309615999926,c,0,0.6440673000179231,None,574263,001,2024-10-14_20h30.54.198,PRIYANSHI.AU2220101_motor.sequence,2024.1.5,None,2024-10-14 20h31.03.501059 +0530,
-50,x,,,,,3,0,12,0,557.6466771000996,,557.6320611999836,557.6466771000996,558.6467750999145,558.6467750999145,558.6467750999145,558.6467750999145,558.6467750999145,559.6466417000629,559.6466417000629,560.0480253999121,x,1,0.3877405000384897,None,574263,001,2024-10-14_20h30.54.198,PRIYANSHI.AU2220101_motor.sequence,2024.1.5,None,2024-10-14 20h31.03.501059 +0530,
50,corr_resp,,,,,3,1,13,2,560.0631285000127,,560.0498496999498,560.0631285000127,561.0630081999116,561.0630081999116,561.0630081999116,561.0630081999116,561.0630081999116,562.0628345999867,562.0628345999867,562.49745419994,c,0,0.4203146998770535,None,574263,001,2024-10-14_20h30.54.198,PRIYANSHI.AU2220101_motor.sequence,2024.1.5,None,2024-10-14 20h31.03.501059 +0530,
50,corr_resp,,,,,3,2,14,2,562.5129676999059,,562.4987349999137,562.5129676999059,563.5129929000977,563.5129929000977,563.5129929000977,563.5129929000977,563.5129929000977,564.5128816000652,564.5128816000652,564.9807225000113,c,0,0.45187350013293326,None,574263,001,2024-10-14_20h30.54.198,PRIYANSHI.AU2220101_motor.sequence,2024.1.5,None,2024-10-14 20h31.03.501059 +0530,
150,v,,,,,3,3,15,1,564.9963211999275,,564.9818122000434,564.9963211999275,565.9961898000911,565.9961898000911,565.9961898000911,565.9961898000911,565.9961898000911,566.9962553000078,566.9962553000078,567.7804193999618,v,1,0.7677137001883239,None,574263,001,2024-10-14_20h30.54.198,PRIYANSHI.AU2220101_motor.sequence,2024.1.5,None,2024-10-14 20h31.03.501059 +0530,
-150,z,,,,,4,0,16,3,567.7964099000674,,567.7816596000921,567.7964099000674,568.7963032999542,568.7963032999542,568.7963032999542,568.7963032999542,568.7963032999542,569.7962314998731,569.7962314998731,570.3638224999886,z,1,0.5607342999428511,None,574263,001,2024-10-14_20h30.54.198,PRIYANSHI.AU2220101_motor.sequence,2024.1.5,None,2024-10-14 20h31.03.501059 +0530,
150,v,,,,,4,1,17,1,570.3795386999846,,570.3649623999372,570.3795386999846,571.3793677000795,571.3793677000795,571.3793677000795,571.3793677000795,571.3793677000795,572.3792604000773,572.3792604000773,573.5971043000463,v,1,1.214066700078547,None,574263,001,2024-10-14_20h30.54.198,PRIYANSHI.AU2220101_motor.sequence,2024.1.5,None,2024-10-14 20h31.03.501059 +0530,
50,corr_resp,,,,,4,2,18,2,573.6125898999162,,573.5982705999631,573.6125898999162,574.6126572000794,574.6126572000794,574.6126572000794,574.6126572000794,574.6126572000794,575.6129191999789,575.6129191999789,576.3968907000963,c,0,0.7768646001350135,None,574263,001,2024-10-14_20h30.54.198,PRIYANSHI.AU2220101_motor.sequence,2024.1.5,None,2024-10-14 20h31.03.501059 +0530,
150,v,,,,,4,3,19,1,576.4125256000552,,576.3980596999172,576.4125256000552,577.4123762999661,577.4123762999661,577.4123762999661,577.4123762999661,577.4123762999661,578.4125208000187,578.4125208000187,579.413913999917,v,1,0.9856807000469416,None,574263,001,2024-10-14_20h30.54.198,PRIYANSHI.AU2220101_motor.sequence,2024.1.5,None,2024-10-14 20h31.03.501059 +0530,
-50,x,,,,,5,0,20,0,579.4293060000055,,579.4154471000656,579.4293060000055,580.4294276998844,580.4294276998844,580.4294276998844,580.4294276998844,580.4294276998844,581.4290577000938,581.4290577000938,582.0634021998849,x,1,0.6255385999102145,None,574263,001,2024-10-14_20h30.54.198,PRIYANSHI.AU2220101_motor.sequence,2024.1.5,None,2024-10-14 20h31.03.501059 +0530,
-50,x,,,,,5,1,21,0,582.0790339999367,,582.0645391000435,582.0790339999367,583.0790744998958,583.0790744998958,583.0790744998958,583.0790744998958,583.0790744998958,584.0792157000396,584.0792157000396,584.5804773999844,x,1,0.49068950000219047,None,574263,001,2024-10-14_20h30.54.198,PRIYANSHI.AU2220101_motor.sequence,2024.1.5,None,2024-10-14 20h31.03.501059 +0530,
-50,x,,,,,5,2,22,0,584.5956013000105,,584.581582200015,584.5956013000105,585.5960395000875,585.5960395000875,585.5960395000875,585.5960395000875,585.5960395000875,586.5955779999495,586.5955779999495,586.9972755000927,x,1,0.39957150002010167,None,574263,001,2024-10-14_20h30.54.198,PRIYANSHI.AU2220101_motor.sequence,2024.1.5,None,2024-10-14 20h31.03.501059 +0530,
-150,z,,,,,5,3,23,3,587.0122809999157,,586.9984909000341,587.0122809999157,588.0123131000437,588.0123131000437,588.0123131000437,588.0123131000437,588.0123131000437,589.0122783000115,589.0122783000115,589.4966563000344,z,1,0.4712964999489486,None,574263,001,2024-10-14_20h30.54.198,PRIYANSHI.AU2220101_motor.sequence,2024.1.5,None,2024-10-14 20h31.03.501059 +0530,
-150,z,,,,,6,0,24,3,589.5122797999065,,589.4977708000224,589.5122797999065,590.5122517999262,590.5122517999262,590.5122517999262,590.5122517999262,590.5122517999262,591.5121838999912,591.5121838999912,592.2131534998771,z,1,0.6951489998027682,None,574263,001,2024-10-14_20h30.54.198,PRIYANSHI.AU2220101_motor.sequence,2024.1.5,None,2024-10-14 20h31.03.501059 +0530,
150,v,,,,,6,1,25,1,592.2290064999834,,592.2144341999665,592.2290064999834,593.2288997999858,593.2288997999858,593.2288997999858,593.2288997999858,593.2288997999858,594.2288450000342,594.2288450000342,594.6297520999797,v,1,0.3926061000674963,None,574263,001,2024-10-14_20h30.54.198,PRIYANSHI.AU2220101_motor.sequence,2024.1.5,None,2024-10-14 20h31.03.501059 +0530,
50,corr_resp,,,,,6,2,26,2,594.6454219999723,,594.6308808999602,594.6454219999723,595.6453515000176,595.6453515000176,595.6453515000176,595.6453515000176,595.6453515000176,596.6458544998895,596.6458544998895,597.1303308999632,c,0,0.48217889992520213,None,574263,001,2024-10-14_20h30.54.198,PRIYANSHI.AU2220101_motor.sequence,2024.1.5,None,2024-10-14 20h31.03.501059 +0530,
50,corr_resp,,,,,6,3,27,2,597.1453025999945,,597.1315075000748,597.1453025999945,598.1455323998816,598.1455323998816,598.1455323998816,598.1455323998816,598.1455323998816,599.1452573998831,599.1452573998831,599.9963781998958,c,0,0.8376462000887841,None,574263,001,2024-10-14_20h30.54.198,PRIYANSHI.AU2220101_motor.sequence,2024.1.5,None,2024-10-14 20h31.03.501059 +0530,
50,corr_resp,,,,,7,0,28,2,600.0119531000964,,599.9975650000852,600.0119531000964,601.0119483000599,601.0119483000599,601.0119483000599,601.0119483000599,601.0119483000599,602.0119119998999,602.0119119998999,602.6963762999512,c,0,0.6698763999156654,None,574263,001,2024-10-14_20h30.54.198,PRIYANSHI.AU2220101_motor.sequence,2024.1.5,None,2024-10-14 20h31.03.501059 +0530,
-50,x,,,,,7,1,29,0,602.7117570000701,,602.6975885001011,602.7117570000701,603.7117192998994,603.7117192998994,603.7117192998994,603.7117192998994,603.7117192998994,604.7117888000794,604.7117888000794,605.1128698000684,x,1,0.39273409987799823,None,574263,001,2024-10-14_20h30.54.198,PRIYANSHI.AU2220101_motor.sequence,2024.1.5,None,2024-10-14 20h31.03.501059 +0530,
-50,x,,,,,7,2,30,0,605.1285419999622,,605.1144304000773,605.1285419999622,606.1283181998879,606.1283181998879,606.1283181998879,606.1283181998879,606.1283181998879,607.1286168999504,607.1286168999504,608.0465343000833,x,1,0.9134846001397818,None,574263,001,2024-10-14_20h30.54.198,PRIYANSHI.AU2220101_motor.sequence,2024.1.5,None,2024-10-14 20h31.03.501059 +0530,
-50,x,,,,,7,3,31,0,608.0616913000122,,608.0481022000313,608.0616913000122,609.0619025998749,609.0619025998749,609.0619025998749,609.0619025998749,609.0619025998749,610.0616148998961,610.0616148998961,610.5627216000576,x,1,0.49389209994114935,None,574263,001,2024-10-14_20h30.54.198,PRIYANSHI.AU2220101_motor.sequence,2024.1.5,None,2024-10-14 20h31.03.501059 +0530,
-150,z,,,,,8,0,32,3,610.5784048999194,,610.5638756998815,610.5784048999194,611.5783909000456,611.5783909000456,611.5783909000456,611.5783909000456,611.5783909000456,612.57839099993,612.57839099993,613.1794376000762,z,1,0.5864989999681711,None,574263,001,2024-10-14_20h30.54.198,PRIYANSHI.AU2220101_motor.sequence,2024.1.5,None,2024-10-14 20h31.03.501059 +0530,
150,v,,,,,8,1,33,1,613.1949944999069,,613.1806127999444,613.1949944999069,614.1949151000008,614.1949151000008,614.1949151000008,614.1949151000008,614.1949151000008,615.1949020000175,615.1949020000175,616.0627540999558,v,1,0.8657921999692917,None,574263,001,2024-10-14_20h30.54.198,PRIYANSHI.AU2220101_motor.sequence,2024.1.5,None,2024-10-14 20h31.03.501059 +0530,
-150,z,,,,,8,2,34,3,616.0781785999425,,616.0639833000023,616.0781785999425,617.0785884999204,617.0785884999204,617.0785884999204,617.0785884999204,617.0785884999204,618.0785365998745,618.0785365998745,619.0135727000888,z,1,0.9252139001619071,None,574263,001,2024-10-14_20h30.54.198,PRIYANSHI.AU2220101_motor.sequence,2024.1.5,None,2024-10-14 20h31.03.501059 +0530,
150,v,,,,,8,3,35,1,619.0285922000185,,619.0149979998823,619.0285922000185,620.0282948000822,620.0282948000822,620.0282948000822,620.0282948000822,620.0282948000822,621.0280216000974,621.0280216000974,621.4623145998921,v,1,0.4209732001181692,None,574263,001,2024-10-14_20h30.54.198,PRIYANSHI.AU2220101_motor.sequence,2024.1.5,None,2024-10-14 20h31.03.501059 +0530,
-50,x,,,,,9,0,36,0,621.478092599893,,621.4635866000317,621.478092599893,622.4781418999191,622.4781418999191,622.4781418999191,622.4781418999191,622.4781418999191,623.4780923000071,623.4780923000071,624.2958086999133,x,1,0.8110438000876456,None,574263,001,2024-10-14_20h30.54.198,PRIYANSHI.AU2220101_motor.sequence,2024.1.5,None,2024-10-14 20h31.03.501059 +0530,
-50,x,,,,,9,1,37,0,624.31119700009,,624.2969698000234,624.31119700009,625.3111012999434,625.3111012999434,625.3111012999434,625.3111012999434,625.3111012999434,626.3111634999514,626.3111634999514,627.1305935001001,x,1,0.8172160000540316,None,574263,001,2024-10-14_20h30.54.198,PRIYANSHI.AU2220101_motor.sequence,2024.1.5,None,2024-10-14 20h31.03.501059 +0530,
-150,z,,,,,9,2,38,3,627.1448373999447,,627.1317107998766,627.1448373999447,628.1444606999867,628.1444606999867,628.1444606999867,628.1444606999867,628.1444606999867,629.1444725999609,629.1444725999609,629.5788892998826,z,1,0.4239136001560837,None,574263,001,2024-10-14_20h30.54.198,PRIYANSHI.AU2220101_motor.sequence,2024.1.5,None,2024-10-14 20h31.03.501059 +0530,
-50,x,,,,,9,3,39,0,629.5945063999388,,629.580285300035,629.5945063999388,630.5944755999371,630.5944755999371,630.5944755999371,630.5944755999371,630.5944755999371,631.5944040999748,631.5944040999748,632.1121417998802,x,1,0.5024347000289708,None,574263,001,2024-10-14_20h30.54.198,PRIYANSHI.AU2220101_motor.sequence,2024.1.5,None,2024-10-14 20h31.03.501059 +0530,
-50,x,,,,,10,0,40,0,632.1279678998981,,632.1133232000284,632.1279678998981,633.1279187998734,633.1279187998734,633.1279187998734,633.1279187998734,633.1279187998734,634.1278961999342,634.1278961999342,634.7126879000571,x,1,0.5833380999974906,None,574263,001,2024-10-14_20h30.54.198,PRIYANSHI.AU2220101_motor.sequence,2024.1.5,None,2024-10-14 20h31.03.501059 +0530,
-150,z,,,,,10,1,41,3,634.7278108999599,,634.7137887000572,634.7278108999599,635.7276236000471,635.7276236000471,635.7276236000471,635.7276236000471,635.7276236000471,636.7278469000012,636.7278469000012,637.4795665999409,z,1,0.7377909999340773,None,574263,001,2024-10-14_20h30.54.198,PRIYANSHI.AU2220101_motor.sequence,2024.1.5,None,2024-10-14 20h31.03.501059 +0530,
150,v,,,,,10,2,42,1,637.4945088999812,,637.4811905999668,637.4945088999812,638.4945358000696,638.4945358000696,638.4945358000696,638.4945358000696,638.4945358000696,639.4941078000702,639.4941078000702,640.3287839998957,v,1,0.8281586999073625,None,574263,001,2024-10-14_20h30.54.198,PRIYANSHI.AU2220101_motor.sequence,2024.1.5,None,2024-10-14 20h31.03.501059 +0530,
-50,x,,,,,10,3,43,0,640.3441850000527,,640.330039500026,640.3441850000527,641.3443686000537,641.3443686000537,641.3443686000537,641.3443686000537,641.3443686000537,642.3441860000603,642.3441860000603,643.3452111000661,x,1,0.991225800011307,None,574263,001,2024-10-14_20h30.54.198,PRIYANSHI.AU2220101_motor.sequence,2024.1.5,None,2024-10-14 20h31.03.501059 +0530,
-50,x,,,,,11,0,44,0,643.3608645000495,,643.3463455000892,643.3608645000495,644.3607032999862,644.3607032999862,644.3607032999862,644.3607032999862,644.3607032999862,645.3608327999245,645.3608327999245,646.1616094000638,x,1,0.7917361001018435,None,574263,001,2024-10-14_20h30.54.198,PRIYANSHI.AU2220101_motor.sequence,2024.1.5,None,2024-10-14 20h31.03.501059 +0530,
-50,x,,,,,11,1,45,0,646.1773876000661,,646.1627565000672,646.1773876000661,647.1774923999328,647.1774923999328,647.1774923999328,647.1774923999328,647.1774923999328,648.1775140999816,648.1775140999816,648.9614766000304,x,1,0.7789666000753641,None,574263,001,2024-10-14_20h30.54.198,PRIYANSHI.AU2220101_motor.sequence,2024.1.5,None,2024-10-14 20h31.03.501059 +0530,
-50,x,,,,,11,2,46,0,648.9772763000801,,648.9625830000732,648.9772763000801,649.9775791999418,649.9775791999418,649.9775791999418,649.9775791999418,649.9775791999418,650.9775022999384,650.9775022999384,651.5285054999404,x,1,0.5380555000156164,None,574263,001,2024-10-14_20h30.54.198,PRIYANSHI.AU2220101_motor.sequence,2024.1.5,None,2024-10-14 20h31.03.501059 +0530,
-150,z,,,,,11,3,47,3,651.5439102998935,,651.529770599911,651.5439102998935,652.544131499948,652.544131499948,652.544131499948,652.544131499948,652.544131499948,653.5440130000934,653.5440130000934,653.9971894000191,z,1,0.45053259981796145,None,574263,001,2024-10-14_20h30.54.198,PRIYANSHI.AU2220101_motor.sequence,2024.1.5,None,2024-10-14 20h31.03.501059 +0530,
50,corr_resp,,,,,12,0,48,2,654.0108916999307,,653.9987049000338,654.0108916999307,655.0106367999688,655.0106367999688,655.0106367999688,655.0106367999688,655.0106367999688,656.0106726000085,656.0106726000085,656.4114828999154,c,0,0.3972446999978274,None,574263,001,2024-10-14_20h30.54.198,PRIYANSHI.AU2220101_motor.sequence,2024.1.5,None,2024-10-14 20h31.03.501059 +0530,
-50,x,,,,,12,1,49,0,656.4271372999065,,656.4125944999978,656.4271372999065,657.4273508000188,657.4273508000188,657.4273508000188,657.4273508000188,657.4273508000188,658.4271124999505,658.4271124999505,659.261511699995,x,1,0.8196485000662506,None,574263,001,2024-10-14_20h30.54.198,PRIYANSHI.AU2220101_motor.sequence,2024.1.5,None,2024-10-14 20h31.03.501059 +0530,
50,corr_resp,,,,,12,2,50,2,659.2771598999389,,659.2631691999268,659.2771598999389,660.2769448999316,660.2769448999316,660.2769448999316,660.2769448999316,660.2769448999316,661.277002699906,661.277002699906,662.1113477998879,c,0,0.824381000129506,None,574263,001,2024-10-14_20h30.54.198,PRIYANSHI.AU2220101_motor.sequence,2024.1.5,None,2024-10-14 20h31.03.501059 +0530,
50,corr_resp,,,,,12,3,51,2,662.1272112000734,,662.1125395998824,662.1272112000734,663.1271848999895,663.1271848999895,663.1271848999895,663.1271848999895,663.1271848999895,664.1270045998972,664.1270045998972,664.7283067000099,c,0,0.5966884999070317,None,574263,001,2024-10-14_20h30.54.198,PRIYANSHI.AU2220101_motor.sequence,2024.1.5,None,2024-10-14 20h31.03.501059 +0530,
150,v,,,,,13,0,52,1,664.7436098998878,,664.729354100069,664.7436098998878,665.7435971000232,665.7435971000232,665.7435971000232,665.7435971000232,665.7435971000232,666.7435945998877,666.7435945998877,667.1947323000059,v,1,0.4425721999723464,None,574263,001,2024-10-14_20h30.54.198,PRIYANSHI.AU2220101_motor.sequence,2024.1.5,None,2024-10-14 20h31.03.501059 +0530,
50,corr_resp,,,,,13,1,53,2,667.2100519000087,,667.1958544999361,667.2100519000087,668.2102385999169,668.2102385999169,668.2102385999169,668.2102385999169,668.2102385999169,669.21008479991,669.21008479991,670.4444118000101,c,0,1.221390400081873,None,574263,001,2024-10-14_20h30.54.198,PRIYANSHI.AU2220101_motor.sequence,2024.1.5,None,2024-10-14 20h31.03.501059 +0530,
50,corr_resp,,,,,13,2,54,2,670.4599363000598,,670.4460455998778,670.4599363000598,671.4601199999452,671.4601199999452,671.4601199999452,671.4601199999452,671.4601199999452,672.4599510000553,672.4599510000553,673.1446610998828,c,0,0.6826107997912914,None,574263,001,2024-10-14_20h30.54.198,PRIYANSHI.AU2220101_motor.sequence,2024.1.5,None,2024-10-14 20h31.03.501059 +0530,
150,v,,,,,13,3,55,1,673.1600291999057,,673.1458870999049,673.1600291999057,674.1594769000076,674.1594769000076,674.1594769000076,674.1594769000076,674.1594769000076,675.1597780000884,675.1597780000884,675.9110198998824,v,1,0.7480228000786155,None,574263,001,2024-10-14_20h30.54.198,PRIYANSHI.AU2220101_motor.sequence,2024.1.5,None,2024-10-14 20h31.03.501059 +0530,
150,v,,,,,14,0,56,1,675.9267553999089,,675.9121522998903,675.9267553999089,676.9269715999253,676.9269715999253,676.9269715999253,676.9269715999253,676.9269715999253,677.9266395999584,677.9266395999584,678.8276945999824,v,1,0.8873350999783725,None,574263,001,2024-10-14_20h30.54.198,PRIYANSHI.AU2220101_motor.sequence,2024.1.5,None,2024-10-14 20h31.03.501059 +0530,
50,corr_resp,,,,,14,1,57,2,678.8432996000629,,678.8288274998777,678.8432996000629,679.8434057999402,679.8434057999402,679.8434057999402,679.8434057999402,679.8434057999402,680.8431742000394,680.8431742000394,681.777515700087,c,0,0.9312019001226872,None,574263,001,2024-10-14_20h30.54.198,PRIYANSHI.AU2220101_motor.sequence,2024.1.5,None,2024-10-14 20h31.03.501059 +0530,
150,v,,,,,14,2,58,1,681.7931343999226,,681.7786721000448,681.7931343999226,682.7930274999235,682.7930274999235,682.7930274999235,682.7930274999235,682.7930274999235,683.7930566000286,683.7930566000286,684.693841899978,v,1,0.8977045000065118,None,574263,001,2024-10-14_20h30.54.198,PRIYANSHI.AU2220101_motor.sequence,2024.1.5,None,2024-10-14 20h31.03.501059 +0530,
-50,x,,,,,14,3,59,0,684.7096009999514,,684.694882000098,684.7096009999514,685.7095423000865,685.7095423000865,685.7095423000865,685.7095423000865,685.7095423000865,686.7095516000409,686.7095516000409,687.3940914999694,x,1,0.6700253000017256,None,574263,001,2024-10-14_20h30.54.198,PRIYANSHI.AU2220101_motor.sequence,2024.1.5,None,2024-10-14 20h31.03.501059 +0530,
-50,x,,,,,15,0,60,0,687.4095610999502,,687.3952089999802,687.4095610999502,688.4096568000969,688.4096568000969,688.4096568000969,688.4096568000969,688.4096568000969,689.4096476999111,689.4096476999111,689.744014600059,x,1,0.33105590008199215,None,574263,001,2024-10-14_20h30.54.198,PRIYANSHI.AU2220101_motor.sequence,2024.1.5,None,2024-10-14 20h31.03.501059 +0530,
50,corr_resp,,,,,15,1,61,2,689.7595243998803,,689.7451454999391,689.7595243998803,690.7598699000664,690.7598699000664,690.7598699000664,690.7598699000664,690.7598699000664,691.7594194000121,691.7594194000121,692.693991499953,c,0,0.9214062001556158,None,574263,001,2024-10-14_20h30.54.198,PRIYANSHI.AU2220101_motor.sequence,2024.1.5,None,2024-10-14 20h31.03.501059 +0530,
-50,x,,,,,15,2,62,0,692.7094091000035,,692.6951073000673,692.7094091000035,693.7093682000414,693.7093682000414,693.7093682000414,693.7093682000414,693.7093682000414,694.7093265999574,694.7093265999574,695.393744800007,x,1,0.679136399878189,None,574263,001,2024-10-14_20h30.54.198,PRIYANSHI.AU2220101_motor.sequence,2024.1.5,None,2024-10-14 20h31.03.501059 +0530,
-150,z,,,,,15,3,63,3,695.4093114999123,,695.3949090999085,695.4093114999123,696.40933090006,696.40933090006,696.40933090006,696.40933090006,696.40933090006,697.4094080999494,697.4094080999494,697.7938401999418,z,1,0.3717329998034984,None,574263,001,2024-10-14_20h30.54.198,PRIYANSHI.AU2220101_motor.sequence,2024.1.5,None,2024-10-14 20h31.03.501059 +0530,
50,corr_resp,,,,,16,0,64,2,697.8091597000603,,697.7949272000697,697.8091597000603,698.8092525000684,698.8092525000684,698.8092525000684,698.8092525000684,698.8092525000684,699.8093165999744,699.8093165999744,700.677261200035,c,0,0.8633864000439644,None,574263,001,2024-10-14_20h30.54.198,PRIYANSHI.AU2220101_motor.sequence,2024.1.5,None,2024-10-14 20h31.03.501059 +0530,
-150,z,,,,,16,1,65,3,700.6924469999503,,700.6783700999804,700.6924469999503,701.6923706000671,701.6923706000671,701.6923706000671,701.6923706000671,701.6923706000671,702.6925443999935,702.6925443999935,703.2105179000646,z,1,0.5016038999892771,None,574263,001,2024-10-14_20h30.54.198,PRIYANSHI.AU2220101_motor.sequence,2024.1.5,None,2024-10-14 20h31.03.501059 +0530,
50,corr_resp,,,,,16,2,66,2,703.2260594998952,,703.2116378999781,703.2260594998952,704.2260829000734,704.2260829000734,704.2260829000734,704.2260829000734,704.2260829000734,705.2259504999965,705.2259504999965,705.9937736000866,c,0,0.7606299999170005,None,574263,001,2024-10-14_20h30.54.198,PRIYANSHI.AU2220101_motor.sequence,2024.1.5,None,2024-10-14 20h31.03.501059 +0530,
-50,x,,,,,16,3,67,0,706.0092068999074,,705.9948539999314,706.0092068999074,707.0092950998805,707.0092950998805,707.0092950998805,707.0092950998805,707.0092950998805,708.0091162999161,708.0091162999161,708.3602251999546,x,1,0.3474931998644024,None,574263,001,2024-10-14_20h30.54.198,PRIYANSHI.AU2220101_motor.sequence,2024.1.5,None,2024-10-14 20h31.03.501059 +0530,
